participant,tone,tone_onset,loop.thisN,key_resp_5.keys,key_resp_5.rt,mouseClick_5.clicked_name,thisA,thisB,thisC,typePrompt,cor,snr,env,CRMcorrect,CRMhit,hit,miss,cr,fa
F2024_1,stimuli/tones/silence.wav,2,0,noResp,NA,W_4,stimuli/Baron6dB/070203.wav,stimuli/Ringo/010101.wav,stimuli/Hopper/030103.wav,NA,1,silence,silence,W_4,1,0,0,1,0
F2024_1,stimuli/tones/silence.wav,0.75,1,noResp,NA,G_3,stimuli/Baron6dB/070302.wav,stimuli/Charlie/000303.wav,stimuli/Ringo/010200.wav,NA,1,silence,silence,G_3,1,0,0,1,0
F2024_1,stimuli/tones/FlatIEC-30dB.wav,0.75,2,noResp,NA,W_1,stimuli/Baron6dB/070200.wav,stimuli/Hopper/030001.wav,stimuli/Ringo/010101.wav,NA,0,-30dB,Flat,W_1,1,0,1,0,0
F2024_1,stimuli/tones/silence.wav,2,3,noResp,NA,B_1,stimuli/Baron6dB/070000.wav,stimuli/Eagle/060200.wav,stimuli/Hopper/030001.wav,NA,1,silence,silence,B_1,1,0,0,1,0
F2024_1,stimuli/tones/silence.wav,0.75,4,noResp,NA,R_1,stimuli/Baron6dB/070100.wav,stimuli/Ringo/010202.wav,stimuli/Laker/020302.wav,NA,1,silence,silence,R_1,1,0,0,1,0
F2024_1,stimuli/tones/FlatIEC-33dB.wav,1.25,5,noResp,NA,B_4,stimuli/Baron6dB/070003.wav,stimuli/Tiger/050200.wav,stimuli/Ringo/010301.wav,NA,0,-33dB,Flat,B_4,1,0,1,0,0
F2024_1,stimuli/tones/silence.wav,1.25,6,noResp,NA,G_4,stimuli/Baron6dB/070303.wav,stimuli/Tiger/050302.wav,stimuli/Eagle/060000.wav,NA,1,silence,silence,G_4,1,0,0,1,0
F2024_1,stimuli/tones/PercTri-24dB.wav,1.25,7,space,1.7492,W_2,stimuli/Baron6dB/070201.wav,stimuli/Arrow/040001.wav,stimuli/Hopper/030002.wav,NA,1,-24dB,PercTri,W_2,1,1,0,0,0
F2024_1,stimuli/tones/PercTri-21dB.wav,2,8,space,2.7476,G_1,stimuli/Baron6dB/070300.wav,stimuli/Charlie/000300.wav,stimuli/Arrow/040100.wav,NA,1,-21dB,PercTri,G_1,1,1,0,0,0
F2024_1,stimuli/tones/silence.wav,2,9,noResp,NA,G_2,stimuli/Baron6dB/070301.wav,stimuli/Laker/020202.wav,stimuli/Tiger/050101.wav,NA,1,silence,silence,G_2,1,0,0,1,0
F2024_1,stimuli/tones/silence.wav,1.25,10,noResp,NA,R_2,stimuli/Baron6dB/070101.wav,stimuli/Ringo/010100.wav,stimuli/Tiger/050201.wav,NA,1,silence,silence,R_2,1,0,0,1,0
F2024_1,stimuli/tones/silence.wav,2,11,noResp,NA,W_3,stimuli/Baron6dB/070202.wav,stimuli/Arrow/040201.wav,stimuli/Eagle/060103.wav,NA,1,silence,silence,W_3,1,0,0,1,0
F2024_1,stimuli/tones/FlatIEC-18dB.wav,1.25,12,noResp,NA,R_4,stimuli/Baron6dB/070103.wav,stimuli/Laker/020000.wav,stimuli/Tiger/050302.wav,NA,0,-18dB,Flat,R_4,1,0,1,0,0
F2024_1,stimuli/tones/FlatIEC-27dB.wav,2,13,space,0.1168,B_2,stimuli/Baron6dB/070001.wav,stimuli/Laker/020200.wav,stimuli/Charlie/000101.wav,NA,1,-27dB,Flat,B_2,1,1,0,0,0
F2024_1,stimuli/tones/silence.wav,2,14,space,0.0515,R_3,stimuli/Baron6dB/070102.wav,stimuli/Eagle/060303.wav,stimuli/Tiger/050200.wav,NA,0,silence,silence,R_3,1,0,0,0,1
F2024_1,stimuli/tones/silence.wav,2,15,noResp,NA,B_3,stimuli/Baron6dB/070002.wav,stimuli/Eagle/060203.wav,stimuli/Hopper/030101.wav,NA,1,silence,silence,B_3,1,0,0,1,0
F2024_1,stimuli/tones/silence.wav,1.25,16,noResp,NA,W_1,stimuli/Baron6dB/070200.wav,stimuli/Charlie/000003.wav,stimuli/Hopper/030202.wav,NA,1,silence,silence,W_1,1,0,0,1,0
F2024_1,stimuli/tones/silence.wav,0.75,17,noResp,NA,R_1,stimuli/Baron6dB/070100.wav,stimuli/Tiger/050303.wav,stimuli/Hopper/030301.wav,NA,1,silence,silence,R_1,1,0,0,1,0
F2024_1,stimuli/tones/FlatIEC-18dB.wav,0.75,18,space,1.5666,G_1,stimuli/Baron6dB/070300.wav,stimuli/Laker/020302.wav,stimuli/Laker/020003.wav,NA,1,-18dB,Flat,G_1,1,1,0,0,0
F2024_1,stimuli/tones/PercTri-33dB.wav,1.25,19,space,1.8489,B_3,stimuli/Baron6dB/070002.wav,stimuli/Arrow/040300.wav,stimuli/Tiger/050001.wav,NA,1,-33dB,PercTri,B_3,1,1,0,0,0
F2024_1,stimuli/tones/silence.wav,1.25,20,noResp,NA,G_3,stimuli/Baron6dB/070302.wav,stimuli/Laker/020100.wav,stimuli/Laker/020300.wav,NA,1,silence,silence,G_3,1,0,0,1,0
F2024_1,stimuli/tones/FlatIEC-24dB.wav,0.75,21,space,1.8278,G_2,stimuli/Baron6dB/070301.wav,stimuli/Arrow/040202.wav,stimuli/Eagle/060303.wav,NA,1,-24dB,Flat,G_2,1,1,0,0,0
F2024_1,stimuli/tones/silence.wav,1.25,22,noResp,NA,B_4,stimuli/Baron6dB/070003.wav,stimuli/Arrow/040103.wav,stimuli/Charlie/000300.wav,NA,1,silence,silence,B_4,1,0,0,1,0
F2024_1,stimuli/tones/silence.wav,1.25,23,noResp,NA,W_2,stimuli/Baron6dB/070201.wav,stimuli/Ringo/010002.wav,stimuli/Arrow/040203.wav,NA,1,silence,silence,W_2,1,0,0,1,0
F2024_1,stimuli/tones/PercTri-30dB.wav,1.25,24,space,1.6768,G_2,stimuli/Baron6dB/070101.wav,stimuli/Charlie/000200.wav,stimuli/Charlie/000003.wav,NA,1,-30dB,PercTri,R_2,0,1,0,0,0
F2024_1,stimuli/tones/PercTri-27dB.wav,2,25,noResp,NA,R_3,stimuli/Baron6dB/070102.wav,stimuli/Arrow/040302.wav,stimuli/Arrow/040001.wav,NA,0,-27dB,PercTri,R_3,1,0,1,0,0
F2024_1,stimuli/tones/PercTri-18dB.wav,2,26,space,3.0666,W_4,stimuli/Baron6dB/070203.wav,stimuli/Laker/020103.wav,stimuli/Eagle/060002.wav,NA,1,-18dB,PercTri,W_4,1,1,0,0,0
F2024_1,stimuli/tones/silence.wav,0.75,27,noResp,NA,G_3,stimuli/Baron6dB/070303.wav,stimuli/Ringo/010303.wav,stimuli/Hopper/030303.wav,NA,1,silence,silence,G_4,0,0,0,1,0
F2024_1,stimuli/tones/FlatIEC-33dB.wav,2,28,noResp,NA,B_2,stimuli/Baron6dB/070001.wav,stimuli/Arrow/040100.wav,stimuli/Charlie/000203.wav,NA,0,-33dB,Flat,B_2,1,0,1,0,0
F2024_1,stimuli/tones/PercTri-30dB.wav,1.25,29,space,2.0365,W_3,stimuli/Baron6dB/070202.wav,stimuli/Hopper/030003.wav,stimuli/Laker/020203.wav,NA,1,-30dB,PercTri,W_3,1,1,0,0,0
F2024_1,stimuli/tones/silence.wav,2,30,noResp,NA,R_4,stimuli/Baron6dB/070103.wav,stimuli/Tiger/050001.wav,stimuli/Arrow/040302.wav,NA,1,silence,silence,R_4,1,0,0,1,0
F2024_1,stimuli/tones/silence.wav,0.75,31,noResp,NA,B_1,stimuli/Baron6dB/070000.wav,stimuli/Charlie/000000.wav,stimuli/Arrow/040003.wav,NA,1,silence,silence,B_1,1,0,0,1,0
F2024_1,stimuli/tones/silence.wav,1.25,32,noResp,NA,W_1,stimuli/Baron6dB/070200.wav,stimuli/Laker/020301.wav,stimuli/Charlie/000302.wav,NA,1,silence,silence,W_1,1,0,0,1,0
F2024_1,stimuli/tones/silence.wav,1.25,33,noResp,NA,W_4,stimuli/Baron6dB/070203.wav,stimuli/Ringo/010200.wav,stimuli/Eagle/060101.wav,NA,1,silence,silence,W_4,1,0,0,1,0
F2024_1,stimuli/tones/silence.wav,0.75,34,noResp,NA,W_3,stimuli/Baron6dB/070102.wav,stimuli/Hopper/030303.wav,stimuli/Tiger/050303.wav,NA,1,silence,silence,R_3,0,0,0,1,0
F2024_1,stimuli/tones/PercTri-33dB.wav,2,35,noResp,NA,W_3,stimuli/Baron6dB/070202.wav,stimuli/Eagle/060100.wav,stimuli/Ringo/010000.wav,NA,0,-33dB,PercTri,W_3,1,0,1,0,0
F2024_1,stimuli/tones/silence.wav,1.25,36,space,0.1996,R_4,stimuli/Baron6dB/070103.wav,stimuli/Laker/020102.wav,stimuli/Arrow/040103.wav,NA,0,silence,silence,R_4,1,0,0,0,1
F2024_1,stimuli/tones/FlatIEC-27dB.wav,1.25,37,space,2.242,B_2,stimuli/Baron6dB/070001.wav,stimuli/Eagle/060001.wav,stimuli/Eagle/060100.wav,NA,1,-27dB,Flat,B_2,1,1,0,0,0
F2024_1,stimuli/tones/FlatIEC-21dB.wav,2,38,noResp,NA,B_4,stimuli/Baron6dB/070003.wav,stimuli/Hopper/030302.wav,stimuli/Charlie/000202.wav,NA,0,-21dB,Flat,B_4,1,0,1,0,0
F2024_1,stimuli/tones/silence.wav,2,39,space,0.2186,R_1,stimuli/Baron6dB/070100.wav,stimuli/Ringo/010302.wav,stimuli/Ringo/010002.wav,NA,0,silence,silence,R_1,1,0,0,0,1
F2024_1,stimuli/tones/silence.wav,1.25,40,noResp,NA,B_3,stimuli/Baron6dB/070002.wav,stimuli/Eagle/060101.wav,stimuli/Tiger/050100.wav,NA,1,silence,silence,B_3,1,0,0,1,0
F2024_1,stimuli/tones/silence.wav,1.25,41,space,0.3491,R_2,stimuli/Baron6dB/070101.wav,stimuli/Eagle/060202.wav,stimuli/Eagle/060300.wav,NA,0,silence,silence,R_2,1,0,0,0,1
F2024_1,stimuli/tones/PercTri-30dB.wav,0.75,42,space,1.4759,G_3,stimuli/Baron6dB/070302.wav,stimuli/Tiger/050000.wav,stimuli/Eagle/060202.wav,NA,1,-30dB,PercTri,G_3,1,1,0,0,0
F2024_1,stimuli/tones/PercTri-24dB.wav,2,43,space,3.1323,G_2,stimuli/Baron6dB/070301.wav,stimuli/Arrow/040002.wav,stimuli/Tiger/050301.wav,NA,1,-24dB,PercTri,G_2,1,1,0,0,0
F2024_1,stimuli/tones/FlatIEC-21dB.wav,1.25,44,noResp,NA,G_4,stimuli/Baron6dB/070303.wav,stimuli/Eagle/060003.wav,stimuli/Hopper/030003.wav,NA,0,-21dB,Flat,G_4,1,0,1,0,0
F2024_1,stimuli/tones/PercTri-27dB.wav,2,45,space,3.1924,W_2,stimuli/Baron6dB/070201.wav,stimuli/Laker/020001.wav,stimuli/Tiger/050000.wav,NA,1,-27dB,PercTri,W_2,1,1,0,0,0
F2024_1,stimuli/tones/silence.wav,2,46,noResp,NA,G_1,stimuli/Baron6dB/070300.wav,stimuli/Tiger/050203.wav,stimuli/Ringo/010202.wav,NA,1,silence,silence,G_1,1,0,0,1,0
F2024_1,stimuli/tones/FlatIEC-27dB.wav,0.75,47,noResp,NA,B_1,stimuli/Baron6dB/070000.wav,stimuli/Tiger/050003.wav,stimuli/Arrow/040002.wav,NA,0,-27dB,Flat,B_1,1,0,1,0,0
F2024_1,stimuli/tones/PercTri-27dB.wav,0.75,48,space,1.3181,W_4,stimuli/Baron6dB/070203.wav,stimuli/Tiger/050103.wav,stimuli/Hopper/030302.wav,NA,1,-27dB,PercTri,W_4,1,1,0,0,0
F2024_1,stimuli/tones/silence.wav,1.25,49,noResp,NA,B_3,stimuli/Baron6dB/070002.wav,stimuli/Arrow/040101.wav,stimuli/Laker/020202.wav,NA,1,silence,silence,B_3,1,0,0,1,0
F2024_1,stimuli/tones/silence.wav,1.25,50,noResp,NA,W_2,stimuli/Baron6dB/070201.wav,stimuli/Ringo/010001.wav,stimuli/Eagle/060201.wav,NA,1,silence,silence,W_2,1,0,0,1,0
F2024_1,stimuli/tones/silence.wav,1.25,51,noResp,NA,B_4,stimuli/Baron6dB/070003.wav,stimuli/Tiger/050300.wav,stimuli/Tiger/050203.wav,NA,1,silence,silence,B_4,1,0,0,1,0
F2024_1,stimuli/tones/PercTri-30dB.wav,0.75,52,space,1.2598,B_2,stimuli/Baron6dB/070001.wav,stimuli/Hopper/030203.wav,stimuli/Laker/020200.wav,NA,1,-30dB,PercTri,B_2,1,1,0,0,0
F2024_1,stimuli/tones/PercTri-30dB.wav,2,53,space,2.5003,W_3,stimuli/Baron6dB/070202.wav,stimuli/Laker/020003.wav,stimuli/Laker/020303.wav,NA,1,-30dB,PercTri,W_3,1,1,0,0,0
F2024_1,stimuli/tones/silence.wav,2,54,noResp,NA,B_1,stimuli/Baron6dB/070000.wav,stimuli/Eagle/060102.wav,stimuli/Arrow/040202.wav,NA,1,silence,silence,B_1,1,0,0,1,0
F2024_1,stimuli/tones/FlatIEC-27dB.wav,0.75,55,noResp,NA,R_4,stimuli/Baron6dB/070103.wav,stimuli/Laker/020201.wav,stimuli/Tiger/050003.wav,NA,0,-27dB,Flat,R_4,1,0,1,0,0
F2024_1,stimuli/tones/FlatIEC-21dB.wav,0.75,56,space,1.6,G_3,stimuli/Baron6dB/070302.wav,stimuli/Laker/020300.wav,stimuli/Charlie/000301.wav,NA,1,-21dB,Flat,G_3,1,1,0,0,0
F2024_1,stimuli/tones/silence.wav,0.75,57,noResp,NA,R_1,stimuli/Baron6dB/070100.wav,stimuli/Charlie/000203.wav,stimuli/Hopper/030100.wav,NA,1,silence,silence,R_1,1,0,0,1,0
F2024_1,stimuli/tones/FlatIEC-30dB.wav,2,58,noResp,NA,G_2,stimuli/Baron6dB/070301.wav,stimuli/Eagle/060300.wav,stimuli/Laker/020001.wav,NA,0,-30dB,Flat,G_2,1,0,1,0,0
F2024_1,stimuli/tones/silence.wav,1.25,59,space,0.1272,G_1,stimuli/Baron6dB/070300.wav,stimuli/Ringo/010103.wav,stimuli/Arrow/040300.wav,NA,0,silence,silence,G_1,1,0,0,0,1
F2024_1,stimuli/tones/silence.wav,2,60,noResp,NA,R_2,stimuli/Baron6dB/070101.wav,stimuli/Charlie/000201.wav,stimuli/Charlie/000002.wav,NA,1,silence,silence,R_2,1,0,0,1,0
F2024_1,stimuli/tones/silence.wav,0.75,61,noResp,NA,W_1,stimuli/Baron6dB/070200.wav,stimuli/Hopper/030200.wav,stimuli/Arrow/040303.wav,NA,1,silence,silence,W_1,1,0,0,1,0
F2024_1,stimuli/tones/silence.wav,0.75,62,noResp,NA,G_4,stimuli/Baron6dB/070303.wav,stimuli/Hopper/030100.wav,stimuli/Laker/020002.wav,NA,1,silence,silence,G_4,1,0,0,1,0
F2024_1,stimuli/tones/PercTri-27dB.wav,0.75,63,space,1.3265,R_3,stimuli/Baron6dB/070102.wav,stimuli/Charlie/000301.wav,stimuli/Laker/020102.wav,NA,1,-27dB,PercTri,R_3,1,1,0,0,0
F2024_1,stimuli/tones/silence.wav,2,64,noResp,NA,W_3,stimuli/Baron6dB/070202.wav,stimuli/Ringo/010003.wav,stimuli/Laker/020103.wav,NA,1,silence,silence,W_3,1,0,0,1,0
F2024_1,stimuli/tones/FlatIEC-21dB.wav,2,65,space,3.2256,R_3,stimuli/Baron6dB/070102.wav,stimuli/Eagle/060301.wav,stimuli/Eagle/060003.wav,NA,1,-21dB,Flat,R_3,1,1,0,0,0
F2024_1,stimuli/tones/PercTri-21dB.wav,2,66,space,2.533,B_2,stimuli/Baron6dB/070001.wav,stimuli/Eagle/060103.wav,stimuli/Ringo/010103.wav,NA,1,-21dB,PercTri,B_2,1,1,0,0,0
F2024_1,stimuli/tones/FlatIEC-33dB.wav,1.25,67,noResp,NA,G_3,stimuli/Baron6dB/070302.wav,stimuli/Charlie/000101.wav,stimuli/Charlie/000001.wav,NA,0,-33dB,Flat,G_3,1,0,1,0,0
F2024_1,stimuli/tones/FlatIEC-27dB.wav,2,68,space,2.9187,W_2,stimuli/Baron6dB/070201.wav,stimuli/Tiger/050202.wav,stimuli/Tiger/050202.wav,NA,1,-27dB,Flat,W_2,1,1,0,0,0
F2024_1,stimuli/tones/silence.wav,2,69,noResp,NA,W_1,stimuli/Baron6dB/070200.wav,stimuli/Hopper/030102.wav,stimuli/Charlie/000303.wav,NA,1,silence,silence,W_1,1,0,0,1,0
F2024_1,stimuli/tones/silence.wav,1.25,70,noResp,NA,R_4,stimuli/Baron6dB/070103.wav,stimuli/Tiger/050301.wav,stimuli/Hopper/030200.wav,NA,1,silence,silence,R_4,1,0,0,1,0
F2024_1,stimuli/tones/FlatIEC-18dB.wav,0.75,71,space,2.1326,B_3,stimuli/Baron6dB/070002.wav,stimuli/Tiger/050201.wav,stimuli/Eagle/060001.wav,NA,1,-18dB,Flat,B_3,1,1,0,0,0
F2024_1,stimuli/tones/silence.wav,2,72,noResp,NA,G_1,stimuli/Baron6dB/070300.wav,stimuli/Hopper/030103.wav,stimuli/Tiger/050102.wav,NA,1,silence,silence,G_1,1,0,0,1,0
F2024_1,stimuli/tones/FlatIEC-33dB.wav,2,73,space,3.3769,W_4,stimuli/Baron6dB/070203.wav,stimuli/Eagle/060000.wav,stimuli/Arrow/040000.wav,NA,1,-33dB,Flat,W_4,1,1,0,0,0
F2024_1,stimuli/tones/silence.wav,2,74,noResp,NA,G_2,stimuli/Baron6dB/070301.wav,stimuli/Ringo/010300.wav,stimuli/Charlie/000100.wav,NA,1,silence,silence,G_2,1,0,0,1,0
F2024_1,stimuli/tones/silence.wav,2,75,noResp,NA,B_4,stimuli/Baron6dB/070003.wav,stimuli/Ringo/010000.wav,stimuli/Hopper/030300.wav,NA,1,silence,silence,B_4,1,0,0,1,0
F2024_1,stimuli/tones/PercTri-21dB.wav,1.25,76,space,1.8175,G_4,stimuli/Baron6dB/070303.wav,stimuli/Charlie/000202.wav,stimuli/Ringo/010303.wav,NA,1,-21dB,PercTri,G_4,1,1,0,0,0
F2024_1,stimuli/tones/PercTri-24dB.wav,0.75,77,space,1.2926,B_1,stimuli/Baron6dB/070000.wav,stimuli/Charlie/000001.wav,stimuli/Tiger/050103.wav,NA,1,-24dB,PercTri,B_1,1,1,0,0,0
F2024_1,stimuli/tones/FlatIEC-18dB.wav,1.25,78,space,2.3163,R_2,stimuli/Baron6dB/070101.wav,stimuli/Eagle/060201.wav,stimuli/Arrow/040201.wav,NA,1,-18dB,Flat,R_2,1,1,0,0,0
F2024_1,stimuli/tones/FlatIEC-18dB.wav,0.75,79,space,1.6451,R_1,stimuli/Baron6dB/070100.wav,stimuli/Charlie/000102.wav,stimuli/Tiger/050300.wav,NA,1,-18dB,Flat,R_1,1,1,0,0,0
F2024_1,stimuli/tones/PercTri-33dB.wav,0.75,80,space,1.4993,B_4,stimuli/Baron6dB/070003.wav,stimuli/Tiger/050002.wav,stimuli/Hopper/030201.wav,NA,1,-33dB,PercTri,B_4,1,1,0,0,0
F2024_1,stimuli/tones/silence.wav,0.75,81,noResp,NA,B_2,stimuli/Baron6dB/070001.wav,stimuli/Ringo/010203.wav,stimuli/Arrow/040101.wav,NA,1,silence,silence,B_2,1,0,0,1,0
F2024_1,stimuli/tones/silence.wav,2,82,noResp,NA,W_3,stimuli/Baron6dB/070202.wav,stimuli/Laker/020101.wav,stimuli/Charlie/000102.wav,NA,1,silence,silence,W_3,1,0,0,1,0
F2024_1,stimuli/tones/silence.wav,1.25,83,noResp,NA,R_2,stimuli/Baron6dB/070101.wav,stimuli/Tiger/050100.wav,stimuli/Eagle/060102.wav,NA,1,silence,silence,R_2,1,0,0,1,0
F2024_1,stimuli/tones/silence.wav,1.25,84,noResp,NA,W_1,stimuli/Baron6dB/070200.wav,stimuli/Hopper/030002.wav,stimuli/Eagle/060200.wav,NA,1,silence,silence,W_1,1,0,0,1,0
F2024_1,stimuli/tones/FlatIEC-21dB.wav,2,85,space,2.9608,G_2,stimuli/Baron6dB/070301.wav,stimuli/Laker/020203.wav,stimuli/Charlie/000000.wav,NA,1,-21dB,Flat,G_2,1,1,0,0,0
F2024_1,stimuli/tones/silence.wav,2,86,noResp,NA,G_1,stimuli/Baron6dB/070300.wav,stimuli/Hopper/030201.wav,stimuli/Eagle/060302.wav,NA,1,silence,silence,G_1,1,0,0,1,0
F2024_1,stimuli/tones/PercTri-21dB.wav,1.25,87,space,1.8944,R_1,stimuli/Baron6dB/070103.wav,stimuli/Charlie/000302.wav,stimuli/Eagle/060203.wav,NA,1,-21dB,PercTri,R_4,0,1,0,0,0
F2024_1,stimuli/tones/silence.wav,0.75,88,noResp,NA,G_3,stimuli/Baron6dB/070302.wav,stimuli/Ringo/010301.wav,stimuli/Ringo/010203.wav,NA,1,silence,silence,G_3,1,0,0,1,0
F2024_1,stimuli/tones/FlatIEC-21dB.wav,1.25,89,noResp,NA,B_3,stimuli/Baron6dB/070002.wav,stimuli/Hopper/030202.wav,stimuli/Hopper/030102.wav,NA,0,-21dB,Flat,B_3,1,0,1,0,0
F2024_1,stimuli/tones/silence.wav,1.25,90,space,0.0244,W_2,stimuli/Baron6dB/070201.wav,stimuli/Charlie/000100.wav,stimuli/Ringo/010300.wav,NA,0,silence,silence,W_2,1,0,0,0,1
F2024_1,stimuli/tones/FlatIEC-18dB.wav,2,91,noResp,NA,W_4,stimuli/Baron6dB/070203.wav,stimuli/Tiger/050101.wav,stimuli/Arrow/040301.wav,NA,0,-18dB,Flat,W_4,1,0,1,0,0
F2024_1,stimuli/tones/silence.wav,1.25,92,space,0.1006,R_3,stimuli/Baron6dB/070102.wav,stimuli/Arrow/040000.wav,stimuli/Ringo/010201.wav,NA,0,silence,silence,R_3,1,0,0,0,1
F2024_1,stimuli/tones/FlatIEC-33dB.wav,0.75,93,space,1.7167,B_1,stimuli/Baron6dB/070000.wav,stimuli/Hopper/030300.wav,stimuli/Laker/020101.wav,NA,1,-33dB,Flat,B_1,1,1,0,0,0
F2024_1,stimuli/tones/PercTri-24dB.wav,1.25,94,space,1.8444,G_4,stimuli/Baron6dB/070303.wav,stimuli/Laker/020002.wav,stimuli/Hopper/030203.wav,NA,1,-24dB,PercTri,G_4,1,1,0,0,0
F2024_1,stimuli/tones/silence.wav,0.75,95,noResp,NA,B_3,stimuli/Baron6dB/070100.wav,stimuli/Laker/020303.wav,stimuli/Tiger/050002.wav,NA,1,silence,silence,R_1,0,0,0,1,0
F2024_1,stimuli/tones/silence.wav,0.75,96,noResp,NA,G_3,stimuli/Baron6dB/070302.wav,stimuli/Arrow/040301.wav,stimuli/Arrow/040102.wav,NA,1,silence,silence,G_3,1,0,0,1,0
F2024_1,stimuli/tones/FlatIEC-30dB.wav,0.75,97,space,1.2652,R_3,stimuli/Baron6dB/070102.wav,stimuli/Arrow/040303.wav,stimuli/Ringo/010001.wav,NA,1,-30dB,Flat,R_3,1,1,0,0,0
F2024_1,stimuli/tones/FlatIEC-24dB.wav,0.75,98,noResp,NA,W_2,stimuli/Baron6dB/070201.wav,stimuli/Eagle/060002.wav,stimuli/Laker/020000.wav,NA,0,-24dB,Flat,W_2,1,0,1,0,0
F2024_1,stimuli/tones/silence.wav,1.25,99,noResp,NA,G_1,stimuli/Baron6dB/070300.wav,stimuli/Ringo/010201.wav,stimuli/Ringo/010100.wav,NA,1,silence,silence,G_1,1,0,0,1,0
F2024_1,stimuli/tones/silence.wav,1.25,100,noResp,NA,R_1,stimuli/Baron6dB/070100.wav,stimuli/Tiger/050102.wav,stimuli/Ringo/010003.wav,NA,1,silence,silence,R_1,1,0,0,1,0
F2024_1,stimuli/tones/silence.wav,2,101,noResp,NA,G_4,stimuli/Baron6dB/070303.wav,stimuli/Hopper/030101.wav,stimuli/Hopper/030000.wav,NA,1,silence,silence,G_4,1,0,0,1,0
F2024_1,stimuli/tones/FlatIEC-24dB.wav,1.25,102,noResp,NA,R_4,stimuli/Baron6dB/070203.wav,stimuli/Hopper/030301.wav,stimuli/Ringo/010302.wav,NA,0,-24dB,Flat,W_4,0,0,1,0,0
F2024_1,stimuli/tones/FlatIEC-18dB.wav,2,103,space,3.0494,G_2,stimuli/Baron6dB/070301.wav,stimuli/Eagle/060302.wav,stimuli/Laker/020201.wav,NA,1,-18dB,Flat,G_2,1,1,0,0,0
F2024_1,stimuli/tones/PercTri-18dB.wav,2,104,noResp,NA,B_1,stimuli/Baron6dB/070000.wav,stimuli/Arrow/040003.wav,stimuli/Laker/020301.wav,NA,0,-18dB,PercTri,B_1,1,0,1,0,0
F2024_1,stimuli/tones/silence.wav,2,105,space,0.084,W_3,stimuli/Baron6dB/070202.wav,stimuli/Arrow/040102.wav,stimuli/Eagle/060301.wav,NA,0,silence,silence,W_3,1,0,0,0,1
F2024_1,stimuli/tones/PercTri-30dB.wav,2,106,noResp,NA,R_3,stimuli/Baron6dB/070101.wav,stimuli/Charlie/000002.wav,stimuli/Ringo/010102.wav,NA,0,-30dB,PercTri,R_2,0,0,1,0,0
F2024_1,stimuli/tones/silence.wav,2,107,noResp,NA,B_4,stimuli/Baron6dB/070003.wav,stimuli/Hopper/030000.wav,stimuli/Charlie/000200.wav,NA,1,silence,silence,B_4,1,0,0,1,0
F2024_1,stimuli/tones/PercTri-27dB.wav,2,108,space,2.4838,R_4,stimuli/Baron6dB/070103.wav,stimuli/Charlie/000103.wav,stimuli/Charlie/000103.wav,NA,1,-27dB,PercTri,R_4,1,1,0,0,0
F2024_1,stimuli/tones/PercTri-18dB.wav,1.25,109,space,2.1165,B_2,stimuli/Baron6dB/070001.wav,stimuli/Arrow/040200.wav,stimuli/Charlie/000201.wav,NA,1,-18dB,PercTri,B_2,1,1,0,0,0
F2024_1,stimuli/tones/silence.wav,0.75,110,noResp,NA,W_1,stimuli/Baron6dB/070200.wav,stimuli/Arrow/040203.wav,stimuli/Arrow/040200.wav,NA,1,silence,silence,W_1,1,0,0,1,0
F2024_1,stimuli/tones/PercTri-24dB.wav,2,111,space,2.5998,B_3,stimuli/Baron6dB/070002.wav,stimuli/Ringo/010102.wav,stimuli/Laker/020100.wav,NA,1,-24dB,PercTri,B_3,1,1,0,0,0
F2024_1,stimuli/tones/FlatIEC-21dB.wav,0.75,112,space,2.0662,R_2,stimuli/Baron6dB/070101.wav,stimuli/Ringo/010302.wav,stimuli/Arrow/040002.wav,NA,1,-21dB,Flat,R_2,1,1,0,0,0
F2024_1,stimuli/tones/PercTri-33dB.wav,1.25,113,noResp,NA,W_1,stimuli/Baron6dB/070200.wav,stimuli/Charlie/000301.wav,stimuli/Hopper/030301.wav,NA,0,-33dB,PercTri,W_1,1,0,1,0,0
F2024_1,stimuli/tones/silence.wav,1.25,114,space,0.0258,B_1,stimuli/Baron6dB/070000.wav,stimuli/Ringo/010102.wav,stimuli/Eagle/060202.wav,NA,0,silence,silence,B_1,1,0,0,0,1
F2024_1,stimuli/tones/silence.wav,2,115,noResp,NA,G_2,stimuli/Baron6dB/070301.wav,stimuli/Laker/020002.wav,stimuli/Laker/020201.wav,NA,1,silence,silence,G_2,1,0,0,1,0
F2024_1,stimuli/tones/silence.wav,1.25,116,noResp,NA,W_4,stimuli/Baron6dB/070203.wav,stimuli/Hopper/030303.wav,stimuli/Charlie/000303.wav,NA,1,silence,silence,W_4,1,0,0,1,0
F2024_1,stimuli/tones/silence.wav,0.75,117,noResp,NA,W_3,stimuli/Baron6dB/070202.wav,stimuli/Arrow/040000.wav,stimuli/Tiger/050301.wav,NA,1,silence,silence,W_3,1,0,0,1,0
F2024_1,stimuli/tones/silence.wav,1.25,118,noResp,NA,B_3,stimuli/Baron6dB/070002.wav,stimuli/Charlie/000203.wav,stimuli/Arrow/040201.wav,NA,1,silence,silence,B_3,1,0,0,1,0
F2024_1,stimuli/tones/PercTri-18dB.wav,1.25,119,space,1.7422,R_4,stimuli/Baron6dB/070103.wav,stimuli/Laker/020201.wav,stimuli/Charlie/000002.wav,NA,1,-18dB,PercTri,R_4,1,1,0,0,0
F2024_1,stimuli/tones/silence.wav,2,120,noResp,NA,G_3,stimuli/Baron6dB/070302.wav,stimuli/Tiger/050200.wav,stimuli/Arrow/040102.wav,NA,1,silence,silence,G_3,1,0,0,1,0
F2024_1,stimuli/tones/FlatIEC-27dB.wav,1.25,121,noResp,NA,W_2,stimuli/Baron6dB/070201.wav,stimuli/Arrow/040003.wav,stimuli/Ringo/010000.wav,NA,0,-27dB,Flat,W_2,1,0,1,0,0
F2024_1,stimuli/tones/silence.wav,0.75,122,noResp,NA,W_1,stimuli/Baron6dB/070100.wav,stimuli/Arrow/040303.wav,stimuli/Tiger/050302.wav,NA,1,silence,silence,R_1,0,0,0,1,0
F2024_1,stimuli/tones/silence.wav,2,123,noResp,NA,G_4,stimuli/Baron6dB/070303.wav,stimuli/Tiger/050000.wav,stimuli/Eagle/060200.wav,NA,1,silence,silence,G_4,1,0,0,1,0
F2024_1,stimuli/tones/silence.wav,2,124,noResp,NA,B_2,stimuli/Baron6dB/070001.wav,stimuli/Ringo/010002.wav,stimuli/Laker/020100.wav,NA,1,silence,silence,B_2,1,0,0,1,0
F2024_1,stimuli/tones/silence.wav,0.75,125,noResp,NA,R_3,stimuli/Baron6dB/070102.wav,stimuli/Hopper/030202.wav,stimuli/Laker/020302.wav,NA,1,silence,silence,R_3,1,0,0,1,0
F2024_1,stimuli/tones/PercTri-33dB.wav,0.75,126,space,1.2089,G_3,stimuli/Baron6dB/070300.wav,stimuli/Charlie/000102.wav,stimuli/Charlie/000000.wav,NA,1,-33dB,PercTri,G_1,0,1,0,0,0
F2024_1,stimuli/tones/FlatIEC-18dB.wav,2,127,space,2.6839,B_4,stimuli/Baron6dB/070003.wav,stimuli/Eagle/060300.wav,stimuli/Eagle/060301.wav,NA,1,-18dB,Flat,B_4,1,1,0,0,0
F2024_1,stimuli/tones/silence.wav,0.75,128,noResp,NA,W_3,stimuli/Baron6dB/070202.wav,stimuli/Eagle/060000.wav,stimuli/Eagle/060103.wav,NA,1,silence,silence,W_3,1,0,0,1,0
F2024_1,stimuli/tones/FlatIEC-21dB.wav,1.25,129,noResp,NA,G_2,stimuli/Baron6dB/070301.wav,stimuli/Charlie/000302.wav,stimuli/Ringo/010102.wav,NA,0,-21dB,Flat,G_2,1,0,1,0,0
F2024_1,stimuli/tones/PercTri-33dB.wav,0.75,130,space,1.5606,R_4,stimuli/Baron6dB/070103.wav,stimuli/Arrow/040200.wav,stimuli/Arrow/040300.wav,NA,1,-33dB,PercTri,R_4,1,1,0,0,0
F2024_1,stimuli/tones/silence.wav,2,131,noResp,NA,R_2,stimuli/Baron6dB/070101.wav,stimuli/Laker/020100.wav,stimuli/Arrow/040003.wav,NA,1,silence,silence,R_2,1,0,0,1,0
F2024_1,stimuli/tones/PercTri-24dB.wav,2,132,space,2.5927,B_2,stimuli/Baron6dB/070001.wav,stimuli/Tiger/050100.wav,stimuli/Hopper/030000.wav,NA,1,-24dB,PercTri,B_2,1,1,0,0,0
F2024_1,stimuli/tones/silence.wav,0.75,133,noResp,NA,W_1,stimuli/Baron6dB/070200.wav,stimuli/Charlie/000201.wav,stimuli/Hopper/030002.wav,NA,1,silence,silence,W_1,1,0,0,1,0
F2024_1,stimuli/tones/FlatIEC-24dB.wav,2,134,noResp,NA,G_1,stimuli/Baron6dB/070300.wav,stimuli/Tiger/050203.wav,stimuli/Arrow/040302.wav,NA,0,-24dB,Flat,G_1,1,0,1,0,0
F2024_1,stimuli/tones/silence.wav,1.25,135,space,0.0494,R_1,stimuli/Baron6dB/070100.wav,stimuli/Ringo/010303.wav,stimuli/Ringo/010203.wav,NA,0,silence,silence,R_1,1,0,0,0,1
F2024_1,stimuli/tones/silence.wav,2,136,noResp,NA,G_4,stimuli/Baron6dB/070303.wav,stimuli/Tiger/050201.wav,stimuli/Charlie/000302.wav,NA,1,silence,silence,G_4,1,0,0,1,0
F2024_1,stimuli/tones/silence.wav,0.75,137,noResp,NA,B_4,stimuli/Baron6dB/070003.wav,stimuli/Tiger/050101.wav,stimuli/Arrow/040301.wav,NA,1,silence,silence,B_4,1,0,0,1,0
F2024_1,stimuli/tones/silence.wav,0.75,138,noResp,NA,R_3,stimuli/Baron6dB/070102.wav,stimuli/Tiger/050001.wav,stimuli/Charlie/000100.wav,NA,1,silence,silence,R_3,1,0,0,1,0
F2024_1,stimuli/tones/FlatIEC-30dB.wav,2,139,space,2.9432,W_4,stimuli/Baron6dB/070203.wav,stimuli/Charlie/000303.wav,stimuli/Ringo/010101.wav,NA,1,-30dB,Flat,W_4,1,1,0,0,0
F2024_1,stimuli/tones/FlatIEC-33dB.wav,1.25,140,noResp,NA,W_2,stimuli/Baron6dB/070201.wav,stimuli/Eagle/060001.wav,stimuli/Laker/020102.wav,NA,0,-33dB,Flat,W_2,1,0,1,0,0
F2024_1,stimuli/tones/silence.wav,1.25,141,noResp,NA,B_3,stimuli/Baron6dB/070002.wav,stimuli/Charlie/000101.wav,stimuli/Tiger/050002.wav,NA,1,silence,silence,B_3,1,0,0,1,0
F2024_1,stimuli/tones/FlatIEC-33dB.wav,2,142,space,2.9758,B_1,stimuli/Baron6dB/070000.wav,stimuli/Charlie/000100.wav,stimuli/Hopper/030302.wav,NA,1,-33dB,Flat,B_1,1,1,0,0,0
F2024_1,stimuli/tones/silence.wav,1.25,143,noResp,NA,R_3,stimuli/Baron6dB/070302.wav,stimuli/Ringo/010100.wav,stimuli/Ringo/010100.wav,NA,1,silence,silence,G_3,0,0,0,1,0
F2024_1,stimuli/tones/PercTri-18dB.wav,0.75,144,space,1.3007,B_3,stimuli/Baron6dB/070002.wav,stimuli/Laker/020102.wav,stimuli/Laker/020300.wav,NA,1,-18dB,PercTri,B_3,1,1,0,0,0
F2024_1,stimuli/tones/PercTri-21dB.wav,2,145,noResp,NA,B_4,stimuli/Baron6dB/070003.wav,stimuli/Charlie/000003.wav,stimuli/Eagle/060300.wav,NA,0,-21dB,PercTri,B_4,1,0,1,0,0
F2024_1,stimuli/tones/PercTri-18dB.wav,2,146,space,2.5531,W_2,stimuli/Baron6dB/070201.wav,stimuli/Ringo/010201.wav,stimuli/Tiger/050003.wav,NA,1,-18dB,PercTri,W_2,1,1,0,0,0
F2024_1,stimuli/tones/PercTri-30dB.wav,2,147,space,2.6093,B_2,stimuli/Baron6dB/070001.wav,stimuli/Laker/020000.wav,stimuli/Charlie/000102.wav,NA,1,-30dB,PercTri,B_2,1,1,0,0,0
F2024_1,stimuli/tones/silence.wav,0.75,148,noResp,NA,R_2,stimuli/Baron6dB/070101.wav,stimuli/Laker/020001.wav,stimuli/Tiger/050200.wav,NA,1,silence,silence,R_2,1,0,0,1,0
F2024_1,stimuli/tones/silence.wav,1.25,149,noResp,NA,W_1,stimuli/Baron6dB/070200.wav,stimuli/Arrow/040002.wav,stimuli/Arrow/040200.wav,NA,1,silence,silence,W_1,1,0,0,1,0
F2024_1,stimuli/tones/PercTri-27dB.wav,1.25,150,space,1.7917,G_1,stimuli/Baron6dB/070300.wav,stimuli/Charlie/000202.wav,stimuli/Charlie/000101.wav,NA,1,-27dB,PercTri,G_1,1,1,0,0,0
F2024_1,stimuli/tones/FlatIEC-24dB.wav,2,151,noResp,NA,G_3,stimuli/Baron6dB/070302.wav,stimuli/Hopper/030003.wav,stimuli/Hopper/030003.wav,NA,0,-24dB,Flat,G_3,1,0,1,0,0
F2024_1,stimuli/tones/PercTri-33dB.wav,2,152,space,2.6732,W_4,stimuli/Baron6dB/070203.wav,stimuli/Charlie/000300.wav,stimuli/Hopper/030101.wav,NA,1,-33dB,PercTri,W_4,1,1,0,0,0
F2024_1,stimuli/tones/FlatIEC-27dB.wav,0.75,153,space,2.4256,R_1,stimuli/Baron6dB/070100.wav,stimuli/Hopper/030101.wav,stimuli/Laker/020303.wav,NA,1,-27dB,Flat,R_1,1,1,0,0,0
F2024_1,stimuli/tones/PercTri-21dB.wav,0.75,154,space,1.3251,R_3,stimuli/Baron6dB/070102.wav,stimuli/Laker/020301.wav,stimuli/Ringo/010303.wav,NA,1,-21dB,PercTri,R_3,1,1,0,0,0
F2024_1,stimuli/tones/PercTri-21dB.wav,1.25,155,space,1.7992,G_2,stimuli/Baron6dB/070301.wav,stimuli/Eagle/060200.wav,stimuli/Tiger/050100.wav,NA,1,-21dB,PercTri,G_2,1,1,0,0,0
F2024_1,stimuli/tones/FlatIEC-30dB.wav,1.25,156,noResp,NA,W_3,stimuli/Baron6dB/070202.wav,stimuli/Tiger/050003.wav,stimuli/Laker/020000.wav,NA,0,-30dB,Flat,W_3,1,0,1,0,0
F2024_1,stimuli/tones/PercTri-18dB.wav,0.75,157,space,1.2428,G_4,stimuli/Baron6dB/070303.wav,stimuli/Eagle/060203.wav,stimuli/Arrow/040101.wav,NA,1,-18dB,PercTri,G_4,1,1,0,0,0
F2024_1,stimuli/tones/silence.wav,0.75,158,noResp,NA,B_1,stimuli/Baron6dB/070000.wav,stimuli/Eagle/060301.wav,stimuli/Eagle/060002.wav,NA,1,silence,silence,B_1,1,0,0,1,0
F2024_1,stimuli/tones/FlatIEC-30dB.wav,1.25,159,noResp,NA,R_4,stimuli/Baron6dB/070103.wav,stimuli/Ringo/010200.wav,stimuli/Tiger/050000.wav,NA,0,-30dB,Flat,R_4,1,0,1,0,0
F2024_1,stimuli/tones/FlatIEC-27dB.wav,1.25,160,noResp,NA,G_4,stimuli/Baron6dB/070303.wav,stimuli/Hopper/030002.wav,stimuli/Tiger/050103.wav,NA,0,-27dB,Flat,G_4,1,0,1,0,0
F2024_1,stimuli/tones/PercTri-18dB.wav,0.75,161,space,1.236,W_3,stimuli/Baron6dB/070102.wav,stimuli/Laker/020303.wav,stimuli/Tiger/050202.wav,NA,1,-18dB,PercTri,R_3,0,1,0,0,0
F2024_1,stimuli/tones/FlatIEC-24dB.wav,0.75,162,space,1.3659,B_4,stimuli/Baron6dB/070003.wav,stimuli/Arrow/040300.wav,stimuli/Arrow/040202.wav,NA,1,-24dB,Flat,B_4,1,1,0,0,0
F2024_1,stimuli/tones/PercTri-27dB.wav,1.25,163,space,1.846,G_1,stimuli/Baron6dB/070300.wav,stimuli/Laker/020103.wav,stimuli/Hopper/030200.wav,NA,1,-27dB,PercTri,G_1,1,1,0,0,0
F2024_1,stimuli/tones/PercTri-21dB.wav,0.75,164,space,1.2581,W_3,stimuli/Baron6dB/070202.wav,stimuli/Ringo/010003.wav,stimuli/Laker/020101.wav,NA,1,-21dB,PercTri,W_3,1,1,0,0,0
F2024_1,stimuli/tones/PercTri-24dB.wav,0.75,165,space,1.268,B_2,stimuli/Baron6dB/070001.wav,stimuli/Tiger/050301.wav,stimuli/Laker/020002.wav,NA,1,-24dB,PercTri,B_2,1,1,0,0,0
F2024_1,stimuli/tones/FlatIEC-33dB.wav,0.75,166,noResp,NA,B_3,stimuli/Baron6dB/070002.wav,stimuli/Arrow/040102.wav,stimuli/Arrow/040001.wav,NA,0,-33dB,Flat,B_3,1,0,1,0,0
F2024_1,stimuli/tones/silence.wav,2,167,noResp,NA,W_4,stimuli/Baron6dB/070203.wav,stimuli/Hopper/030300.wav,stimuli/Ringo/010200.wav,NA,1,silence,silence,W_4,1,0,0,1,0
F2024_1,stimuli/tones/PercTri-27dB.wav,0.75,168,space,1.3609,W_1,stimuli/Baron6dB/070200.wav,stimuli/Arrow/040001.wav,stimuli/Eagle/060303.wav,NA,1,-27dB,PercTri,W_1,1,1,0,0,0
F2024_1,stimuli/tones/silence.wav,1.25,169,noResp,NA,W_2,stimuli/Baron6dB/070201.wav,stimuli/Charlie/000001.wav,stimuli/Eagle/060100.wav,NA,1,silence,silence,W_2,1,0,0,1,0
F2024_1,stimuli/tones/silence.wav,0.75,170,noResp,NA,G_3,stimuli/Baron6dB/070302.wav,stimuli/Tiger/050300.wav,stimuli/Laker/020200.wav,NA,1,silence,silence,G_3,1,0,0,1,0
F2024_1,stimuli/tones/silence.wav,2,171,noResp,NA,G_2,stimuli/Baron6dB/070301.wav,stimuli/Hopper/030103.wav,stimuli/Arrow/040103.wav,NA,1,silence,silence,G_2,1,0,0,1,0
F2024_1,stimuli/tones/PercTri-27dB.wav,1.25,172,space,1.8836,W_4,stimuli/Baron6dB/070103.wav,stimuli/Tiger/050303.wav,stimuli/Tiger/050201.wav,NA,1,-27dB,PercTri,R_4,0,1,0,0,0
F2024_1,stimuli/tones/silence.wav,0.75,173,noResp,NA,R_2,stimuli/Baron6dB/070101.wav,stimuli/Ringo/010103.wav,stimuli/Arrow/040303.wav,NA,1,silence,silence,R_2,1,0,0,1,0
F2024_1,stimuli/tones/silence.wav,2,174,noResp,NA,R_1,stimuli/Baron6dB/070100.wav,stimuli/Arrow/040201.wav,stimuli/Eagle/060201.wav,NA,1,silence,silence,R_1,1,0,0,1,0
F2024_1,stimuli/tones/FlatIEC-30dB.wav,1.25,175,space,2.7004,B_1,stimuli/Baron6dB/070000.wav,stimuli/Eagle/060202.wav,stimuli/Arrow/040203.wav,NA,1,-30dB,Flat,B_1,1,1,0,0,0
F2024_1,stimuli/tones/silence.wav,2,176,noResp,NA,G_2,stimuli/Baron6dB/070301.wav,stimuli/Laker/020003.wav,stimuli/Ringo/010302.wav,NA,1,silence,silence,G_2,1,0,0,1,0
F2024_1,stimuli/tones/FlatIEC-18dB.wav,1.25,177,space,2.0168,B_4,stimuli/Baron6dB/070003.wav,stimuli/Arrow/040100.wav,stimuli/Eagle/060203.wav,NA,1,-18dB,Flat,B_4,1,1,0,0,0
F2024_1,stimuli/tones/silence.wav,0.75,178,noResp,NA,B_3,stimuli/Baron6dB/070002.wav,stimuli/Arrow/040203.wav,stimuli/Ringo/010300.wav,NA,1,silence,silence,B_3,1,0,0,1,0
F2024_1,stimuli/tones/FlatIEC-24dB.wav,1.25,179,space,2.5757,G_1,stimuli/Baron6dB/070300.wav,stimuli/Tiger/050002.wav,stimuli/Ringo/010002.wav,NA,1,-24dB,Flat,G_1,1,1,0,0,0
F2024_1,stimuli/tones/PercTri-30dB.wav,1.25,180,space,1.7754,B_1,stimuli/Baron6dB/070000.wav,stimuli/Laker/020101.wav,stimuli/Eagle/060001.wav,NA,1,-30dB,PercTri,B_1,1,1,0,0,0
F2024_1,stimuli/tones/PercTri-33dB.wav,1.25,181,space,2.2331,B_2,stimuli/Baron6dB/070001.wav,stimuli/Tiger/050102.wav,stimuli/Arrow/040100.wav,NA,1,-33dB,PercTri,B_2,1,1,0,0,0
F2024_1,stimuli/tones/silence.wav,0.75,182,noResp,NA,R_4,stimuli/Baron6dB/070103.wav,stimuli/Charlie/000000.wav,stimuli/Tiger/050303.wav,NA,1,silence,silence,R_4,1,0,0,1,0
F2024_1,stimuli/tones/silence.wav,1.25,183,noResp,NA,G_4,stimuli/Baron6dB/070303.wav,stimuli/Eagle/060003.wav,stimuli/Eagle/060102.wav,NA,1,silence,silence,G_4,1,0,0,1,0
F2024_1,stimuli/tones/FlatIEC-21dB.wav,0.75,184,space,2.0845,W_4,stimuli/Baron6dB/070203.wav,stimuli/Arrow/040101.wav,stimuli/Charlie/000301.wav,NA,1,-21dB,Flat,W_4,1,1,0,0,0
F2024_1,stimuli/tones/silence.wav,2,185,noResp,NA,W_2,stimuli/Baron6dB/070201.wav,stimuli/Laker/020200.wav,stimuli/Tiger/050102.wav,NA,1,silence,silence,W_2,1,0,0,1,0
F2024_1,stimuli/tones/silence.wav,0.75,186,noResp,NA,R_2,stimuli/Baron6dB/070101.wav,stimuli/Laker/020202.wav,stimuli/Eagle/060101.wav,NA,1,silence,silence,R_2,1,0,0,1,0
F2024_1,stimuli/tones/FlatIEC-30dB.wav,2,187,noResp,NA,G_3,stimuli/Baron6dB/070302.wav,stimuli/Ringo/010101.wav,stimuli/Charlie/000202.wav,NA,0,-30dB,Flat,G_3,1,0,1,0,0
F2024_1,stimuli/tones/silence.wav,0.75,188,space,0.0762,R_1,stimuli/Baron6dB/070100.wav,stimuli/Hopper/030000.wav,stimuli/Hopper/030203.wav,NA,0,silence,silence,R_1,1,0,0,0,1
F2024_1,stimuli/tones/PercTri-18dB.wav,1.25,189,space,1.9087,R_3,stimuli/Baron6dB/070102.wav,stimuli/Tiger/050103.wav,stimuli/Hopper/030001.wav,NA,1,-18dB,PercTri,R_3,1,1,0,0,0
F2024_1,stimuli/tones/silence.wav,2,190,noResp,NA,W_1,stimuli/Baron6dB/070200.wav,stimuli/Laker/020302.wav,stimuli/Laker/020103.wav,NA,1,silence,silence,W_1,1,0,0,1,0
F2024_1,stimuli/tones/silence.wav,2,191,noResp,NA,W_3,stimuli/Baron6dB/070202.wav,stimuli/Ringo/010001.wav,stimuli/Ringo/010202.wav,NA,1,silence,silence,W_3,1,0,0,1,0
F2024_1,stimuli/tones/silence.wav,1.25,192,noResp,NA,B_4,stimuli/Baron6dB/070003.wav,stimuli/Charlie/000002.wav,stimuli/Arrow/040000.wav,NA,1,silence,silence,B_4,1,0,0,1,0
F2024_1,stimuli/tones/PercTri-30dB.wav,0.75,193,space,1.3421,W_2,stimuli/Baron6dB/070201.wav,stimuli/Eagle/060100.wav,stimuli/Charlie/000200.wav,NA,1,-30dB,PercTri,W_2,1,1,0,0,0
F2024_1,stimuli/tones/FlatIEC-24dB.wav,1.25,194,space,2.4317,W_3,stimuli/Baron6dB/070202.wav,stimuli/Ringo/010301.wav,stimuli/Hopper/030300.wav,NA,1,-24dB,Flat,W_3,1,1,0,0,0
F2024_1,stimuli/tones/silence.wav,0.75,195,noResp,NA,B_2,stimuli/Baron6dB/070001.wav,stimuli/Eagle/060302.wav,stimuli/Tiger/050001.wav,NA,1,silence,silence,B_2,1,0,0,1,0
F2024_1,stimuli/tones/silence.wav,0.75,196,noResp,NA,R_1,stimuli/Baron6dB/070100.wav,stimuli/Eagle/060201.wav,stimuli/Hopper/030103.wav,NA,1,silence,silence,R_1,1,0,0,1,0
F2024_1,stimuli/tones/PercTri-21dB.wav,0.75,197,space,1.2995,G_2,stimuli/Baron6dB/070301.wav,stimuli/Tiger/050202.wav,stimuli/Ringo/010003.wav,NA,1,-21dB,PercTri,G_2,1,1,0,0,0
F2024_1,stimuli/tones/silence.wav,1.25,198,noResp,NA,B_1,stimuli/Baron6dB/070000.wav,stimuli/Charlie/000200.wav,stimuli/Laker/020202.wav,NA,1,silence,silence,B_1,1,0,0,1,0
F2024_1,stimuli/tones/silence.wav,2,199,noResp,NA,B_3,stimuli/Baron6dB/070002.wav,stimuli/Hopper/030203.wav,stimuli/Hopper/030202.wav,NA,1,silence,silence,B_3,1,0,0,1,0
F2024_1,stimuli/tones/silence.wav,0.75,200,space,2.2514,R_4,stimuli/Baron6dB/070103.wav,stimuli/Charlie/000103.wav,stimuli/Tiger/050101.wav,NA,0,silence,silence,R_4,1,0,0,0,1
F2024_1,stimuli/tones/silence.wav,2,201,noResp,NA,G_4,stimuli/Baron6dB/070303.wav,stimuli/Laker/020203.wav,stimuli/Hopper/030303.wav,NA,1,silence,silence,G_4,1,0,0,1,0
F2024_1,stimuli/tones/FlatIEC-24dB.wav,2,202,space,3.0834,R_3,stimuli/Baron6dB/070102.wav,stimuli/Hopper/030201.wav,stimuli/Eagle/060302.wav,NA,1,-24dB,Flat,R_3,1,1,0,0,0
F2024_1,stimuli/tones/FlatIEC-33dB.wav,0.75,203,noResp,NA,G_1,stimuli/Baron6dB/070300.wav,stimuli/Hopper/030001.wav,stimuli/Tiger/050300.wav,NA,0,-33dB,Flat,G_1,1,0,1,0,0
F2024_1,stimuli/tones/PercTri-24dB.wav,1.25,204,space,1.7994,R_2,stimuli/Baron6dB/070101.wav,stimuli/Eagle/060101.wav,stimuli/Charlie/000001.wav,NA,1,-24dB,PercTri,R_2,1,1,0,0,0
F2024_1,stimuli/tones/silence.wav,0.75,205,noResp,NA,G_3,stimuli/Baron6dB/070302.wav,stimuli/Ringo/010000.wav,stimuli/Charlie/000201.wav,NA,1,silence,silence,G_3,1,0,0,1,0
F2024_1,stimuli/tones/silence.wav,1.25,206,noResp,NA,W_1,stimuli/Baron6dB/070200.wav,stimuli/Eagle/060102.wav,stimuli/Laker/020003.wav,NA,1,silence,silence,W_1,1,0,0,1,0
F2024_1,stimuli/tones/FlatIEC-30dB.wav,0.75,207,noResp,NA,W_4,stimuli/Baron6dB/070203.wav,stimuli/Ringo/010203.wav,stimuli/Charlie/000203.wav,NA,0,-30dB,Flat,W_4,1,0,1,0,0
F2024_1,stimuli/tones/silence.wav,1.25,208,noResp,NA,W_2,stimuli/Baron6dB/070201.wav,stimuli/Arrow/040301.wav,stimuli/Eagle/060003.wav,NA,1,silence,silence,W_2,1,0,0,1,0
F2024_1,stimuli/tones/silence.wav,0.75,209,noResp,NA,G_1,stimuli/Baron6dB/070300.wav,stimuli/Eagle/060303.wav,stimuli/Hopper/030201.wav,NA,1,silence,silence,G_1,1,0,0,1,0
F2024_1,stimuli/tones/silence.wav,0.75,210,noResp,NA,W_3,stimuli/Baron6dB/070202.wav,stimuli/Arrow/040202.wav,stimuli/Charlie/000003.wav,NA,1,silence,silence,W_3,1,0,0,1,0
F2024_1,stimuli/tones/FlatIEC-27dB.wav,2,211,space,2.8204,B_3,stimuli/Baron6dB/070002.wav,stimuli/Eagle/060002.wav,stimuli/Eagle/060000.wav,NA,1,-27dB,Flat,B_3,1,1,0,0,0
F2024_1,stimuli/tones/PercTri-24dB.wav,0.75,212,space,1.4266,W_4,stimuli/Baron6dB/070203.wav,stimuli/Eagle/060103.wav,stimuli/Charlie/000300.wav,NA,1,-24dB,PercTri,W_4,1,1,0,0,0
F2024_1,stimuli/tones/PercTri-33dB.wav,2,213,space,2.6206,R_2,stimuli/Baron6dB/070101.wav,stimuli/Laker/020300.wav,stimuli/Ringo/010301.wav,NA,1,-33dB,PercTri,R_2,1,1,0,0,0
F2024_1,stimuli/tones/silence.wav,1.25,214,noResp,NA,B_4,stimuli/Baron6dB/070003.wav,stimuli/Ringo/010300.wav,stimuli/Ringo/010201.wav,NA,1,silence,silence,B_4,1,0,0,1,0
F2024_1,stimuli/tones/silence.wav,0.75,215,noResp,NA,G_4,stimuli/Baron6dB/070303.wav,stimuli/Hopper/030102.wav,stimuli/Hopper/030100.wav,NA,1,silence,silence,G_4,1,0,0,1,0
F2024_10,stimuli/tones/silence.wav,2,0,noResp,NA,B_1,stimuli/Baron6dB/070000.wav,stimuli/Ringo/010303.wav,stimuli/Arrow/040100.wav,NA,1,silence,silence,B_1,1,0,0,1,0
F2024_10,stimuli/tones/PercTri-21dB.wav,0.75,1,space,1.3893,G_3,stimuli/Baron6dB/070302.wav,stimuli/Hopper/030102.wav,stimuli/Laker/020303.wav,NA,1,-21dB,PercTri,G_3,1,1,0,0,0
F2024_10,stimuli/tones/silence.wav,1.25,2,noResp,NA,R_3,stimuli/Baron6dB/070102.wav,stimuli/Hopper/030000.wav,stimuli/Tiger/050003.wav,NA,1,silence,silence,R_3,1,0,0,1,0
F2024_10,stimuli/tones/silence.wav,0.75,3,noResp,NA,W_3,stimuli/Baron6dB/070202.wav,stimuli/Tiger/050200.wav,stimuli/Charlie/000200.wav,NA,1,silence,silence,W_3,1,0,0,1,0
F2024_10,stimuli/tones/PercTri-30dB.wav,2,4,noResp,NA,R_4,stimuli/Baron6dB/070103.wav,stimuli/Eagle/060301.wav,stimuli/Laker/020002.wav,NA,0,-30dB,PercTri,R_4,1,0,1,0,0
F2024_10,stimuli/tones/silence.wav,2,5,space,0.2275,B_3,stimuli/Baron6dB/070002.wav,stimuli/Hopper/030101.wav,stimuli/Hopper/030202.wav,NA,0,silence,silence,B_3,1,0,0,0,1
F2024_10,stimuli/tones/PercTri-33dB.wav,2,6,noResp,NA,W_2,stimuli/Baron6dB/070201.wav,stimuli/Eagle/060303.wav,stimuli/Charlie/000103.wav,NA,0,-33dB,PercTri,W_2,1,0,1,0,0
F2024_10,stimuli/tones/silence.wav,0.75,7,space,0.2101,R_2,stimuli/Baron6dB/070101.wav,stimuli/Laker/020103.wav,stimuli/Arrow/040000.wav,NA,0,silence,silence,R_2,1,0,0,0,1
F2024_10,stimuli/tones/FlatIEC-30dB.wav,1.25,8,noResp,NA,W_1,stimuli/Baron6dB/070200.wav,stimuli/Tiger/050202.wav,stimuli/Tiger/050101.wav,NA,0,-30dB,Flat,W_1,1,0,1,0,0
F2024_10,stimuli/tones/PercTri-18dB.wav,0.75,9,space,1.4431,B_4,stimuli/Baron6dB/070003.wav,stimuli/Charlie/000000.wav,stimuli/Hopper/030201.wav,NA,1,-18dB,PercTri,B_4,1,1,0,0,0
F2024_10,stimuli/tones/silence.wav,0.75,10,noResp,NA,W_4,stimuli/Baron6dB/070203.wav,stimuli/Charlie/000102.wav,stimuli/Laker/020203.wav,NA,1,silence,silence,W_4,1,0,0,1,0
F2024_10,stimuli/tones/PercTri-33dB.wav,2,11,noResp,NA,R_1,stimuli/Baron6dB/070100.wav,stimuli/Charlie/000003.wav,stimuli/Tiger/050202.wav,NA,0,-33dB,PercTri,R_1,1,0,1,0,0
F2024_10,stimuli/tones/silence.wav,1.25,12,space,0.1403,G_1,stimuli/Baron6dB/070300.wav,stimuli/Charlie/000201.wav,stimuli/Eagle/060001.wav,NA,0,silence,silence,G_1,1,0,0,0,1
F2024_10,stimuli/tones/PercTri-33dB.wav,1.25,13,space,4.5666,G_4,stimuli/Baron6dB/070303.wav,stimuli/Laker/020102.wav,stimuli/Ringo/010201.wav,NA,1,-33dB,PercTri,G_4,1,1,0,0,0
F2024_10,stimuli/tones/silence.wav,0.75,14,noResp,NA,G_2,stimuli/Baron6dB/070301.wav,stimuli/Eagle/060201.wav,stimuli/Hopper/030200.wav,NA,1,silence,silence,G_2,1,0,0,1,0
F2024_10,stimuli/tones/silence.wav,0.75,15,noResp,NA,B_2,stimuli/Baron6dB/070001.wav,stimuli/Arrow/040101.wav,stimuli/Eagle/060102.wav,NA,1,silence,silence,B_2,1,0,0,1,0
F2024_10,stimuli/tones/silence.wav,0.75,16,noResp,NA,R_3,stimuli/Baron6dB/070102.wav,stimuli/Ringo/010301.wav,stimuli/Eagle/060002.wav,NA,1,silence,silence,R_3,1,0,0,1,0
F2024_10,stimuli/tones/silence.wav,0.75,17,noResp,NA,W_1,stimuli/Baron6dB/070200.wav,stimuli/Tiger/050302.wav,stimuli/Tiger/050301.wav,NA,1,silence,silence,W_1,1,0,0,1,0
F2024_10,stimuli/tones/silence.wav,1.25,18,noResp,NA,W_3,stimuli/Baron6dB/070202.wav,stimuli/Tiger/050103.wav,stimuli/Eagle/060000.wav,NA,1,silence,silence,W_3,1,0,0,1,0
F2024_10,stimuli/tones/silence.wav,2,19,noResp,NA,R_2,stimuli/Baron6dB/070101.wav,stimuli/Hopper/030001.wav,stimuli/Ringo/010001.wav,NA,1,silence,silence,R_2,1,0,0,1,0
F2024_10,stimuli/tones/silence.wav,0.75,20,noResp,NA,B_4,stimuli/Baron6dB/070003.wav,stimuli/Charlie/000300.wav,stimuli/Hopper/030203.wav,NA,1,silence,silence,B_4,1,0,0,1,0
F2024_10,stimuli/tones/silence.wav,1.25,21,noResp,NA,B_2,stimuli/Baron6dB/070001.wav,stimuli/Tiger/050102.wav,stimuli/Ringo/010000.wav,NA,1,silence,silence,B_2,1,0,0,1,0
F2024_10,stimuli/tones/FlatIEC-30dB.wav,0.75,22,noResp,NA,G_3,stimuli/Baron6dB/070302.wav,stimuli/Hopper/030301.wav,stimuli/Laker/020202.wav,NA,0,-30dB,Flat,G_3,1,0,1,0,0
F2024_10,stimuli/tones/silence.wav,2,23,noResp,NA,R_4,stimuli/Baron6dB/070103.wav,stimuli/Hopper/030202.wav,stimuli/Eagle/060303.wav,NA,1,silence,silence,R_4,1,0,0,1,0
F2024_10,stimuli/tones/silence.wav,1.25,24,noResp,NA,R_1,stimuli/Baron6dB/070100.wav,stimuli/Ringo/010202.wav,stimuli/Ringo/010200.wav,NA,1,silence,silence,R_1,1,0,0,1,0
F2024_10,stimuli/tones/silence.wav,2,25,noResp,NA,B_3,stimuli/Baron6dB/070002.wav,stimuli/Hopper/030201.wav,stimuli/Laker/020100.wav,NA,1,silence,silence,B_3,1,0,0,1,0
F2024_10,stimuli/tones/silence.wav,2,26,noResp,NA,B_1,stimuli/Baron6dB/070000.wav,stimuli/Eagle/060202.wav,stimuli/Ringo/010302.wav,NA,1,silence,silence,B_1,1,0,0,1,0
F2024_10,stimuli/tones/FlatIEC-21dB.wav,0.75,27,noResp,NA,G_2,stimuli/Baron6dB/070301.wav,stimuli/Laker/020002.wav,stimuli/Charlie/000300.wav,NA,0,-21dB,Flat,G_2,1,0,1,0,0
F2024_10,stimuli/tones/silence.wav,0.75,28,noResp,NA,W_2,stimuli/Baron6dB/070201.wav,stimuli/Arrow/040202.wav,stimuli/Hopper/030102.wav,NA,1,silence,silence,W_2,1,0,0,1,0
F2024_10,stimuli/tones/FlatIEC-30dB.wav,2,29,noResp,NA,G_1,stimuli/Baron6dB/070300.wav,stimuli/Arrow/040000.wav,stimuli/Eagle/060301.wav,NA,0,-30dB,Flat,G_1,1,0,1,0,0
F2024_10,stimuli/tones/silence.wav,1.25,30,space,0.3259,G_4,stimuli/Baron6dB/070303.wav,stimuli/Laker/020301.wav,stimuli/Tiger/050102.wav,NA,0,silence,silence,G_4,1,0,0,0,1
F2024_10,stimuli/tones/silence.wav,0.75,31,noResp,NA,W_4,stimuli/Baron6dB/070203.wav,stimuli/Ringo/010003.wav,stimuli/Charlie/000003.wav,NA,1,silence,silence,W_4,1,0,0,1,0
F2024_10,stimuli/tones/silence.wav,1.25,32,noResp,NA,G_1,stimuli/Baron6dB/070300.wav,stimuli/Arrow/040303.wav,stimuli/Eagle/060300.wav,NA,1,silence,silence,G_1,1,0,0,1,0
F2024_10,stimuli/tones/silence.wav,2,33,noResp,NA,G_3,stimuli/Baron6dB/070302.wav,stimuli/Ringo/010201.wav,stimuli/Laker/020000.wav,NA,1,silence,silence,G_3,1,0,0,1,0
F2024_10,stimuli/tones/PercTri-24dB.wav,1.25,34,space,1.964,B_2,stimuli/Baron6dB/070001.wav,stimuli/Arrow/040002.wav,stimuli/Hopper/030303.wav,NA,1,-24dB,PercTri,B_2,1,1,0,0,0
F2024_10,stimuli/tones/silence.wav,2,35,noResp,NA,B_4,stimuli/Baron6dB/070003.wav,stimuli/Tiger/050001.wav,stimuli/Laker/020201.wav,NA,1,silence,silence,B_4,1,0,0,1,0
F2024_10,stimuli/tones/silence.wav,0.75,36,noResp,NA,R_2,stimuli/Baron6dB/070101.wav,stimuli/Hopper/030303.wav,stimuli/Charlie/000301.wav,NA,1,silence,silence,R_2,1,0,0,1,0
F2024_10,stimuli/tones/silence.wav,2,37,noResp,NA,G_2,stimuli/Baron6dB/070301.wav,stimuli/Ringo/010000.wav,stimuli/Tiger/050302.wav,NA,1,silence,silence,G_2,1,0,0,1,0
F2024_10,stimuli/tones/FlatIEC-18dB.wav,1.25,38,noResp,NA,W_4,stimuli/Baron6dB/070203.wav,stimuli/Charlie/000001.wav,stimuli/Hopper/030001.wav,NA,0,-18dB,Flat,W_4,1,0,1,0,0
F2024_10,stimuli/tones/silence.wav,2,39,noResp,NA,R_1,stimuli/Baron6dB/070100.wav,stimuli/Ringo/010103.wav,stimuli/Ringo/010103.wav,NA,1,silence,silence,R_1,1,0,0,1,0
F2024_10,stimuli/tones/FlatIEC-27dB.wav,1.25,40,noResp,NA,B_1,stimuli/Baron6dB/070000.wav,stimuli/Eagle/060302.wav,stimuli/Charlie/000303.wav,NA,0,-27dB,Flat,B_1,1,0,1,0,0
F2024_10,stimuli/tones/silence.wav,0.75,41,noResp,NA,W_3,stimuli/Baron6dB/070102.wav,stimuli/Arrow/040103.wav,stimuli/Tiger/050300.wav,NA,1,silence,silence,R_3,0,0,0,1,0
F2024_10,stimuli/tones/PercTri-21dB.wav,0.75,42,space,1.2667,W_2,stimuli/Baron6dB/070201.wav,stimuli/Hopper/030100.wav,stimuli/Laker/020301.wav,NA,1,-21dB,PercTri,W_2,1,1,0,0,0
F2024_10,stimuli/tones/FlatIEC-18dB.wav,1.25,43,noResp,NA,R_4,stimuli/Baron6dB/070103.wav,stimuli/Hopper/030200.wav,stimuli/Laker/020003.wav,NA,0,-18dB,Flat,R_4,1,0,1,0,0
F2024_10,stimuli/tones/silence.wav,0.75,44,noResp,NA,G_4,stimuli/Baron6dB/070303.wav,stimuli/Ringo/010300.wav,stimuli/Hopper/030302.wav,NA,1,silence,silence,G_4,1,0,0,1,0
F2024_10,stimuli/tones/PercTri-33dB.wav,0.75,45,space,1.3268,W_1,stimuli/Baron6dB/070200.wav,stimuli/Arrow/040003.wav,stimuli/Eagle/060100.wav,NA,1,-33dB,PercTri,W_1,1,1,0,0,0
F2024_10,stimuli/tones/silence.wav,2,46,noResp,NA,W_3,stimuli/Baron6dB/070202.wav,stimuli/Ringo/010002.wav,stimuli/Arrow/040300.wav,NA,1,silence,silence,W_3,1,0,0,1,0
F2024_10,stimuli/tones/silence.wav,2,47,noResp,NA,B_3,stimuli/Baron6dB/070002.wav,stimuli/Ringo/010302.wav,stimuli/Ringo/010301.wav,NA,1,silence,silence,B_3,1,0,0,1,0
F2024_10,stimuli/tones/silence.wav,1.25,48,noResp,NA,G_2,stimuli/Baron6dB/070301.wav,stimuli/Ringo/010102.wav,stimuli/Arrow/040202.wav,NA,1,silence,silence,G_2,1,0,0,1,0
F2024_10,stimuli/tones/PercTri-33dB.wav,2,49,space,2.5863,R_4,stimuli/Baron6dB/070103.wav,stimuli/Charlie/000100.wav,stimuli/Ringo/010202.wav,NA,1,-33dB,PercTri,R_4,1,1,0,0,0
F2024_10,stimuli/tones/FlatIEC-33dB.wav,1.25,50,noResp,NA,W_2,stimuli/Baron6dB/070201.wav,stimuli/Hopper/030103.wav,stimuli/Tiger/050201.wav,NA,0,-33dB,Flat,W_2,1,0,1,0,0
F2024_10,stimuli/tones/silence.wav,1.25,51,noResp,NA,G_4,stimuli/Baron6dB/070003.wav,stimuli/Laker/020202.wav,stimuli/Ringo/010101.wav,NA,1,silence,silence,B_4,0,0,0,1,0
F2024_10,stimuli/tones/PercTri-30dB.wav,1.25,52,space,1.794,G_1,stimuli/Baron6dB/070300.wav,stimuli/Charlie/000301.wav,stimuli/Laker/020102.wav,NA,1,-30dB,PercTri,G_1,1,1,0,0,0
F2024_10,stimuli/tones/FlatIEC-27dB.wav,1.25,53,noResp,NA,G_3,stimuli/Baron6dB/070302.wav,stimuli/Laker/020003.wav,stimuli/Ringo/010100.wav,NA,0,-27dB,Flat,G_3,1,0,1,0,0
F2024_10,stimuli/tones/PercTri-24dB.wav,0.75,54,space,1.2951,B_1,stimuli/Baron6dB/070000.wav,stimuli/Charlie/000202.wav,stimuli/Eagle/060003.wav,NA,1,-24dB,PercTri,B_1,1,1,0,0,0
F2024_10,stimuli/tones/PercTri-24dB.wav,0.75,55,space,1.4174,W_1,stimuli/Baron6dB/070200.wav,stimuli/Ringo/010200.wav,stimuli/Arrow/040203.wav,NA,1,-24dB,PercTri,W_1,1,1,0,0,0
F2024_10,stimuli/tones/silence.wav,2,56,noResp,NA,R_2,stimuli/Baron6dB/070101.wav,stimuli/Ringo/010203.wav,stimuli/Laker/020302.wav,NA,1,silence,silence,R_2,1,0,0,1,0
F2024_10,stimuli/tones/silence.wav,2,57,noResp,NA,G_4,stimuli/Baron6dB/070303.wav,stimuli/Hopper/030002.wav,stimuli/Arrow/040302.wav,NA,1,silence,silence,G_4,1,0,0,1,0
F2024_10,stimuli/tones/silence.wav,0.75,58,noResp,NA,R_1,stimuli/Baron6dB/070100.wav,stimuli/Arrow/040100.wav,stimuli/Ringo/010003.wav,NA,1,silence,silence,R_1,1,0,0,1,0
F2024_10,stimuli/tones/silence.wav,0.75,59,noResp,NA,B_2,stimuli/Baron6dB/070001.wav,stimuli/Hopper/030300.wav,stimuli/Arrow/040001.wav,NA,1,silence,silence,B_2,1,0,0,1,0
F2024_10,stimuli/tones/PercTri-33dB.wav,1.25,60,space,1.8247,W_3,stimuli/Baron6dB/070202.wav,stimuli/Laker/020000.wav,stimuli/Arrow/040101.wav,NA,1,-33dB,PercTri,W_3,1,1,0,0,0
F2024_10,stimuli/tones/silence.wav,1.25,61,noResp,NA,B_3,stimuli/Baron6dB/070002.wav,stimuli/Charlie/000302.wav,stimuli/Tiger/050001.wav,NA,1,silence,silence,B_3,1,0,0,1,0
F2024_10,stimuli/tones/silence.wav,0.75,62,noResp,NA,W_4,stimuli/Baron6dB/070203.wav,stimuli/Laker/020100.wav,stimuli/Arrow/040002.wav,NA,1,silence,silence,W_4,1,0,0,1,0
F2024_10,stimuli/tones/FlatIEC-33dB.wav,1.25,63,noResp,NA,R_3,stimuli/Baron6dB/070102.wav,stimuli/Arrow/040200.wav,stimuli/Laker/020101.wav,NA,0,-33dB,Flat,R_3,1,0,1,0,0
F2024_10,stimuli/tones/silence.wav,1.25,64,noResp,NA,G_3,stimuli/Baron6dB/070302.wav,stimuli/Laker/020302.wav,stimuli/Ringo/010300.wav,NA,1,silence,silence,G_3,1,0,0,1,0
F2024_10,stimuli/tones/silence.wav,1.25,65,noResp,NA,B_4,stimuli/Baron6dB/070003.wav,stimuli/Arrow/040203.wav,stimuli/Hopper/030100.wav,NA,1,silence,silence,B_4,1,0,0,1,0
F2024_10,stimuli/tones/FlatIEC-24dB.wav,0.75,66,noResp,NA,R_2,stimuli/Baron6dB/070101.wav,stimuli/Tiger/050100.wav,stimuli/Tiger/050002.wav,NA,0,-24dB,Flat,R_2,1,0,1,0,0
F2024_10,stimuli/tones/silence.wav,2,67,noResp,NA,B_3,stimuli/Baron6dB/070002.wav,stimuli/Eagle/060003.wav,stimuli/Eagle/060203.wav,NA,1,silence,silence,B_3,1,0,0,1,0
F2024_10,stimuli/tones/silence.wav,2,68,noResp,NA,G_1,stimuli/Baron6dB/070300.wav,stimuli/Ringo/010101.wav,stimuli/Charlie/000101.wav,NA,1,silence,silence,G_1,1,0,0,1,0
F2024_10,stimuli/tones/FlatIEC-21dB.wav,0.75,69,noResp,NA,W_4,stimuli/Baron6dB/070203.wav,stimuli/Eagle/060000.wav,stimuli/Arrow/040303.wav,NA,0,-21dB,Flat,W_4,1,0,1,0,0
F2024_10,stimuli/tones/FlatIEC-24dB.wav,2,70,noResp,NA,R_1,stimuli/Baron6dB/070100.wav,stimuli/Laker/020203.wav,stimuli/Tiger/050000.wav,NA,0,-24dB,Flat,R_1,1,0,1,0,0
F2024_10,stimuli/tones/FlatIEC-27dB.wav,1.25,71,space,0.3416,W_3,stimuli/Baron6dB/070202.wav,stimuli/Tiger/050002.wav,stimuli/Ringo/010002.wav,NA,1,-27dB,Flat,W_3,1,1,0,0,0
F2024_10,stimuli/tones/PercTri-27dB.wav,2,72,space,2.567,W_2,stimuli/Baron6dB/070201.wav,stimuli/Eagle/060300.wav,stimuli/Hopper/030002.wav,NA,1,-27dB,PercTri,W_2,1,1,0,0,0
F2024_10,stimuli/tones/silence.wav,1.25,73,noResp,NA,B_2,stimuli/Baron6dB/070001.wav,stimuli/Laker/020200.wav,stimuli/Tiger/050103.wav,NA,1,silence,silence,B_2,1,0,0,1,0
F2024_10,stimuli/tones/silence.wav,1.25,74,noResp,NA,G_2,stimuli/Baron6dB/070301.wav,stimuli/Tiger/050101.wav,stimuli/Eagle/060202.wav,NA,1,silence,silence,G_2,1,0,0,1,0
F2024_10,stimuli/tones/silence.wav,2,75,noResp,NA,B_1,stimuli/Baron6dB/070000.wav,stimuli/Tiger/050000.wav,stimuli/Charlie/000202.wav,NA,1,silence,silence,B_1,1,0,0,1,0
F2024_10,stimuli/tones/silence.wav,0.75,76,noResp,NA,R_4,stimuli/Baron6dB/070103.wav,stimuli/Arrow/040300.wav,stimuli/Tiger/050200.wav,NA,1,silence,silence,R_4,1,0,0,1,0
F2024_10,stimuli/tones/FlatIEC-21dB.wav,1.25,77,noResp,NA,R_3,stimuli/Baron6dB/070102.wav,stimuli/Arrow/040201.wav,stimuli/Eagle/060101.wav,NA,0,-21dB,Flat,R_3,1,0,1,0,0
F2024_10,stimuli/tones/FlatIEC-21dB.wav,2,78,space,2.8622,G_4,stimuli/Baron6dB/070303.wav,stimuli/Tiger/050303.wav,stimuli/Charlie/000000.wav,NA,1,-21dB,Flat,G_4,1,1,0,0,0
F2024_10,stimuli/tones/silence.wav,2,79,noResp,NA,W_1,stimuli/Baron6dB/070200.wav,stimuli/Tiger/050203.wav,stimuli/Arrow/040102.wav,NA,1,silence,silence,W_1,1,0,0,1,0
F2024_10,stimuli/tones/FlatIEC-21dB.wav,1.25,80,space,2.1753,R_2,stimuli/Baron6dB/070100.wav,stimuli/Laker/020201.wav,stimuli/Hopper/030301.wav,NA,1,-21dB,Flat,R_1,0,1,0,0,0
F2024_10,stimuli/tones/silence.wav,1.25,81,noResp,NA,G_2,stimuli/Baron6dB/070301.wav,stimuli/Charlie/000103.wav,stimuli/Charlie/000203.wav,NA,1,silence,silence,G_2,1,0,0,1,0
F2024_10,stimuli/tones/PercTri-27dB.wav,1.25,82,space,1.7,G_4,stimuli/Baron6dB/070003.wav,stimuli/Charlie/000002.wav,stimuli/Ringo/010303.wav,NA,1,-27dB,PercTri,B_4,0,1,0,0,0
F2024_10,stimuli/tones/FlatIEC-24dB.wav,1.25,83,noResp,NA,W_3,stimuli/Baron6dB/070202.wav,stimuli/Eagle/060002.wav,stimuli/Eagle/060103.wav,NA,0,-24dB,Flat,W_3,1,0,1,0,0
F2024_10,stimuli/tones/PercTri-30dB.wav,0.75,84,space,1.3768,R_1,stimuli/Baron6dB/070000.wav,stimuli/Tiger/050201.wav,stimuli/Charlie/000002.wav,NA,1,-30dB,PercTri,B_1,0,1,0,0,0
F2024_10,stimuli/tones/PercTri-24dB.wav,2,85,noResp,NA,R_2,stimuli/Baron6dB/070101.wav,stimuli/Arrow/040001.wav,stimuli/Eagle/060201.wav,NA,0,-24dB,PercTri,R_2,1,0,1,0,0
F2024_10,stimuli/tones/silence.wav,2,86,space,0.109,W_1,stimuli/Baron6dB/070200.wav,stimuli/Tiger/050301.wav,stimuli/Hopper/030103.wav,NA,0,silence,silence,W_1,1,0,0,0,1
F2024_10,stimuli/tones/PercTri-30dB.wav,0.75,87,space,1.2667,W_2,stimuli/Baron6dB/070201.wav,stimuli/Eagle/060103.wav,stimuli/Tiger/050203.wav,NA,1,-30dB,PercTri,W_2,1,1,0,0,0
F2024_10,stimuli/tones/silence.wav,0.75,88,noResp,NA,R_3,stimuli/Baron6dB/070102.wav,stimuli/Tiger/050300.wav,stimuli/Arrow/040200.wav,NA,1,silence,silence,R_3,1,0,0,1,0
F2024_10,stimuli/tones/FlatIEC-27dB.wav,2,89,noResp,NA,B_2,stimuli/Baron6dB/070001.wav,stimuli/Ringo/010100.wav,stimuli/Laker/020103.wav,NA,0,-27dB,Flat,B_2,1,0,1,0,0
F2024_10,stimuli/tones/silence.wav,2,90,noResp,NA,G_1,stimuli/Baron6dB/070300.wav,stimuli/Arrow/040102.wav,stimuli/Charlie/000102.wav,NA,1,silence,silence,G_1,1,0,0,1,0
F2024_10,stimuli/tones/FlatIEC-18dB.wav,0.75,91,space,1.8675,G_3,stimuli/Baron6dB/070002.wav,stimuli/Arrow/040302.wav,stimuli/Charlie/000302.wav,NA,1,-18dB,Flat,B_3,0,1,0,0,0
F2024_10,stimuli/tones/silence.wav,1.25,92,noResp,NA,R_4,stimuli/Baron6dB/070103.wav,stimuli/Eagle/060203.wav,stimuli/Tiger/050100.wav,NA,1,silence,silence,R_4,1,0,0,1,0
F2024_10,stimuli/tones/silence.wav,1.25,93,noResp,NA,G_4,stimuli/Baron6dB/070303.wav,stimuli/Eagle/060102.wav,stimuli/Laker/020200.wav,NA,1,silence,silence,G_4,1,0,0,1,0
F2024_10,stimuli/tones/silence.wav,2,94,noResp,NA,W_4,stimuli/Baron6dB/070203.wav,stimuli/Arrow/040301.wav,stimuli/Hopper/030300.wav,NA,1,silence,silence,W_4,1,0,0,1,0
F2024_10,stimuli/tones/silence.wav,1.25,95,noResp,NA,G_3,stimuli/Baron6dB/070302.wav,stimuli/Eagle/060200.wav,stimuli/Ringo/010203.wav,NA,1,silence,silence,G_3,1,0,0,1,0
F2024_10,stimuli/tones/PercTri-24dB.wav,1.25,96,space,1.859,B_1,stimuli/Baron6dB/070000.wav,stimuli/Eagle/060100.wav,stimuli/Eagle/060200.wav,NA,1,-24dB,PercTri,B_1,1,1,0,0,0
F2024_10,stimuli/tones/silence.wav,2,97,noResp,NA,W_1,stimuli/Baron6dB/070200.wav,stimuli/Hopper/030003.wav,stimuli/Charlie/000001.wav,NA,1,silence,silence,W_1,1,0,0,1,0
F2024_10,stimuli/tones/PercTri-30dB.wav,2,98,space,3.0995,B_2,stimuli/Baron6dB/070001.wav,stimuli/Charlie/000101.wav,stimuli/Arrow/040301.wav,NA,1,-30dB,PercTri,B_2,1,1,0,0,0
F2024_10,stimuli/tones/silence.wav,1.25,99,noResp,NA,R_4,stimuli/Baron6dB/070103.wav,stimuli/Charlie/000303.wav,stimuli/Hopper/030000.wav,NA,1,silence,silence,R_4,1,0,0,1,0
F2024_10,stimuli/tones/FlatIEC-21dB.wav,2,100,space,8.0601,W_1,stimuli/Baron6dB/070300.wav,stimuli/Eagle/060001.wav,stimuli/Hopper/030003.wav,NA,1,-21dB,Flat,G_1,0,1,0,0,0
F2024_10,stimuli/tones/silence.wav,1.25,101,noResp,NA,W_4,stimuli/Baron6dB/070203.wav,stimuli/Hopper/030302.wav,stimuli/Charlie/000201.wav,NA,1,silence,silence,W_4,1,0,0,1,0
F2024_10,stimuli/tones/PercTri-21dB.wav,1.25,102,space,1.8754,G_3,stimuli/Baron6dB/070002.wav,stimuli/Charlie/000200.wav,stimuli/Charlie/000100.wav,NA,1,-21dB,PercTri,B_3,0,1,0,0,0
F2024_10,stimuli/tones/silence.wav,1.25,103,noResp,NA,W_2,stimuli/Baron6dB/070201.wav,stimuli/Charlie/000203.wav,stimuli/Ringo/010102.wav,NA,1,silence,silence,W_2,1,0,0,1,0
F2024_10,stimuli/tones/PercTri-21dB.wav,2,104,noResp,NA,R_1,stimuli/Baron6dB/070100.wav,stimuli/Laker/020001.wav,stimuli/Arrow/040201.wav,NA,0,-21dB,PercTri,R_1,1,0,1,0,0
F2024_10,stimuli/tones/FlatIEC-24dB.wav,2,105,space,0.0999,G_4,stimuli/Baron6dB/070303.wav,stimuli/Laker/020303.wav,stimuli/Eagle/060302.wav,NA,1,-24dB,Flat,G_4,1,1,0,0,0
F2024_10,stimuli/tones/FlatIEC-24dB.wav,1.25,106,space,2.8593,R_2,stimuli/Baron6dB/070101.wav,stimuli/Laker/020300.wav,stimuli/Laker/020001.wav,NA,1,-24dB,Flat,R_2,1,1,0,0,0
F2024_10,stimuli/tones/FlatIEC-33dB.wav,2,107,space,4.1167,R_2,stimuli/Baron6dB/070102.wav,stimuli/Ringo/010001.wav,stimuli/Hopper/030101.wav,NA,1,-33dB,Flat,R_3,0,1,0,0,0
F2024_10,stimuli/tones/FlatIEC-21dB.wav,0.75,108,noResp,NA,G_3,stimuli/Baron6dB/070302.wav,stimuli/Laker/020101.wav,stimuli/Laker/020300.wav,NA,0,-21dB,Flat,G_3,1,0,1,0,0
F2024_10,stimuli/tones/FlatIEC-21dB.wav,1.25,109,noResp,NA,W_3,stimuli/Baron6dB/070202.wav,stimuli/Tiger/050003.wav,stimuli/Arrow/040003.wav,NA,0,-21dB,Flat,W_3,1,0,1,0,0
F2024_10,stimuli/tones/FlatIEC-30dB.wav,0.75,110,noResp,NA,W_2,stimuli/Baron6dB/070301.wav,stimuli/Eagle/060101.wav,stimuli/Tiger/050303.wav,NA,0,-30dB,Flat,G_2,0,0,1,0,0
F2024_10,stimuli/tones/FlatIEC-24dB.wav,2,111,noResp,NA,B_4,stimuli/Baron6dB/070003.wav,stimuli/Hopper/030203.wav,stimuli/Arrow/040103.wav,NA,0,-24dB,Flat,B_4,1,0,1,0,0
F2024_10,stimuli/tones/silence.wav,1.25,112,noResp,NA,G_4,stimuli/Baron6dB/070303.wav,stimuli/Hopper/030301.wav,stimuli/Ringo/010202.wav,NA,1,silence,silence,G_4,1,0,0,1,0
F2024_10,stimuli/tones/FlatIEC-27dB.wav,2,113,noResp,NA,R_2,stimuli/Baron6dB/070101.wav,stimuli/Ringo/010301.wav,stimuli/Arrow/040303.wav,NA,0,-27dB,Flat,R_2,1,0,1,0,0
F2024_10,stimuli/tones/FlatIEC-27dB.wav,0.75,114,noResp,NA,B_1,stimuli/Baron6dB/070000.wav,stimuli/Eagle/060102.wav,stimuli/Ringo/010002.wav,NA,0,-27dB,Flat,B_1,1,0,1,0,0
F2024_10,stimuli/tones/silence.wav,0.75,115,noResp,NA,B_4,stimuli/Baron6dB/070003.wav,stimuli/Arrow/040302.wav,stimuli/Charlie/000003.wav,NA,1,silence,silence,B_4,1,0,0,1,0
F2024_10,stimuli/tones/PercTri-21dB.wav,0.75,116,space,1.2423,W_2,stimuli/Baron6dB/070201.wav,stimuli/Eagle/060003.wav,stimuli/Eagle/060203.wav,NA,1,-21dB,PercTri,W_2,1,1,0,0,0
F2024_10,stimuli/tones/FlatIEC-33dB.wav,2,117,noResp,NA,W_4,stimuli/Baron6dB/070203.wav,stimuli/Tiger/050102.wav,stimuli/Laker/020103.wav,NA,0,-33dB,Flat,W_4,1,0,1,0,0
F2024_10,stimuli/tones/silence.wav,0.75,118,noResp,NA,G_3,stimuli/Baron6dB/070302.wav,stimuli/Arrow/040200.wav,stimuli/Arrow/040201.wav,NA,1,silence,silence,G_3,1,0,0,1,0
F2024_10,stimuli/tones/silence.wav,2,119,noResp,NA,W_3,stimuli/Baron6dB/070202.wav,stimuli/Ringo/010102.wav,stimuli/Hopper/030203.wav,NA,1,silence,silence,W_3,1,0,0,1,0
F2024_10,stimuli/tones/PercTri-30dB.wav,1.25,120,noResp,NA,R_3,stimuli/Baron6dB/070102.wav,stimuli/Tiger/050002.wav,stimuli/Eagle/060003.wav,NA,0,-30dB,PercTri,R_3,1,0,1,0,0
F2024_10,stimuli/tones/FlatIEC-33dB.wav,1.25,121,noResp,NA,W_1,stimuli/Baron6dB/070200.wav,stimuli/Laker/020301.wav,stimuli/Ringo/010300.wav,NA,0,-33dB,Flat,W_1,1,0,1,0,0
F2024_10,stimuli/tones/FlatIEC-18dB.wav,2,122,noResp,NA,G_2,stimuli/Baron6dB/070301.wav,stimuli/Hopper/030001.wav,stimuli/Laker/020101.wav,NA,0,-18dB,Flat,G_2,1,0,1,0,0
F2024_10,stimuli/tones/silence.wav,0.75,123,noResp,NA,G_1,stimuli/Baron6dB/070300.wav,stimuli/Charlie/000102.wav,stimuli/Charlie/000303.wav,NA,1,silence,silence,G_1,1,0,0,1,0
F2024_10,stimuli/tones/PercTri-27dB.wav,0.75,124,space,1.3616,B_2,stimuli/Baron6dB/070001.wav,stimuli/Arrow/040100.wav,stimuli/Eagle/060002.wav,NA,1,-27dB,PercTri,B_2,1,1,0,0,0
F2024_10,stimuli/tones/PercTri-27dB.wav,0.75,125,noResp,NA,B_3,stimuli/Baron6dB/070002.wav,stimuli/Charlie/000300.wav,stimuli/Eagle/060300.wav,NA,0,-27dB,PercTri,B_3,1,0,1,0,0
F2024_10,stimuli/tones/silence.wav,1.25,126,noResp,NA,R_4,stimuli/Baron6dB/070103.wav,stimuli/Charlie/000100.wav,stimuli/Laker/020303.wav,NA,1,silence,silence,R_4,1,0,0,1,0
F2024_10,stimuli/tones/PercTri-18dB.wav,2,127,space,2.5834,R_1,stimuli/Baron6dB/070100.wav,stimuli/Tiger/050202.wav,stimuli/Ringo/010100.wav,NA,1,-18dB,PercTri,R_1,1,1,0,0,0
F2024_10,stimuli/tones/FlatIEC-18dB.wav,0.75,128,noResp,NA,R_2,stimuli/Baron6dB/070101.wav,stimuli/Tiger/050103.wav,stimuli/Arrow/040200.wav,NA,0,-18dB,Flat,R_2,1,0,1,0,0
F2024_10,stimuli/tones/PercTri-27dB.wav,2,129,noResp,NA,B_3,stimuli/Baron6dB/070002.wav,stimuli/Eagle/060200.wav,stimuli/Charlie/000001.wav,NA,0,-27dB,PercTri,B_3,1,0,1,0,0
F2024_10,stimuli/tones/PercTri-33dB.wav,1.25,130,space,2.0268,G_2,stimuli/Baron6dB/070301.wav,stimuli/Ringo/010100.wav,stimuli/Hopper/030303.wav,NA,1,-33dB,PercTri,G_2,1,1,0,0,0
F2024_10,stimuli/tones/FlatIEC-24dB.wav,0.75,131,noResp,NA,W_2,stimuli/Baron6dB/070201.wav,stimuli/Eagle/060303.wav,stimuli/Charlie/000301.wav,NA,0,-24dB,Flat,W_2,1,0,1,0,0
F2024_10,stimuli/tones/FlatIEC-30dB.wav,0.75,132,noResp,NA,R_3,stimuli/Baron6dB/070102.wav,stimuli/Tiger/050303.wav,stimuli/Eagle/060302.wav,NA,0,-30dB,Flat,R_3,1,0,1,0,0
F2024_10,stimuli/tones/PercTri-24dB.wav,2,133,space,2.5955,R_1,stimuli/Baron6dB/070300.wav,stimuli/Ringo/010000.wav,stimuli/Eagle/060103.wav,NA,1,-24dB,PercTri,G_1,0,1,0,0,0
F2024_10,stimuli/tones/FlatIEC-24dB.wav,1.25,134,noResp,NA,W_1,stimuli/Baron6dB/070200.wav,stimuli/Charlie/000101.wav,stimuli/Laker/020300.wav,NA,0,-24dB,Flat,W_1,1,0,1,0,0
F2024_10,stimuli/tones/PercTri-18dB.wav,2,135,space,2.8514,R_4,stimuli/Baron6dB/070103.wav,stimuli/Laker/020100.wav,stimuli/Ringo/010303.wav,NA,1,-18dB,PercTri,R_4,1,1,0,0,0
F2024_10,stimuli/tones/PercTri-18dB.wav,1.25,136,space,1.8931,B_4,stimuli/Baron6dB/070003.wav,stimuli/Tiger/050201.wav,stimuli/Eagle/060101.wav,NA,1,-18dB,PercTri,B_4,1,1,0,0,0
F2024_10,stimuli/tones/silence.wav,0.75,137,noResp,NA,B_2,stimuli/Baron6dB/070001.wav,stimuli/Ringo/010002.wav,stimuli/Tiger/050001.wav,NA,1,silence,silence,B_2,1,0,0,1,0
F2024_10,stimuli/tones/silence.wav,1.25,138,noResp,NA,W_3,stimuli/Baron6dB/070202.wav,stimuli/Hopper/030102.wav,stimuli/Arrow/040003.wav,NA,1,silence,silence,W_3,1,0,0,1,0
F2024_10,stimuli/tones/FlatIEC-30dB.wav,2,139,noResp,NA,G_4,stimuli/Baron6dB/070303.wav,stimuli/Arrow/040000.wav,stimuli/Hopper/030001.wav,NA,0,-30dB,Flat,G_4,1,0,1,0,0
F2024_10,stimuli/tones/silence.wav,0.75,140,noResp,NA,R_1,stimuli/Baron6dB/070100.wav,stimuli/Arrow/040300.wav,stimuli/Tiger/050301.wav,NA,1,silence,silence,R_1,1,0,0,1,0
F2024_10,stimuli/tones/PercTri-18dB.wav,0.75,141,space,1.3261,G_3,stimuli/Baron6dB/070302.wav,stimuli/Tiger/050302.wav,stimuli/Charlie/000203.wav,NA,1,-18dB,PercTri,G_3,1,1,0,0,0
F2024_10,stimuli/tones/PercTri-24dB.wav,1.25,142,space,3.8987,W_4,stimuli/Baron6dB/070203.wav,stimuli/Tiger/050203.wav,stimuli/Eagle/060303.wav,NA,1,-24dB,PercTri,W_4,1,1,0,0,0
F2024_10,stimuli/tones/PercTri-30dB.wav,2,143,space,2.7585,B_1,stimuli/Baron6dB/070000.wav,stimuli/Laker/020103.wav,stimuli/Tiger/050003.wav,NA,1,-30dB,PercTri,B_1,1,1,0,0,0
F2024_10,stimuli/tones/FlatIEC-18dB.wav,2,144,space,2.992,W_3,stimuli/Baron6dB/070202.wav,stimuli/Eagle/060202.wav,stimuli/Laker/020301.wav,NA,1,-18dB,Flat,W_3,1,1,0,0,0
F2024_10,stimuli/tones/FlatIEC-27dB.wav,2,145,space,2.8821,B_1,stimuli/Baron6dB/070000.wav,stimuli/Laker/020303.wav,stimuli/Charlie/000201.wav,NA,1,-27dB,Flat,B_1,1,1,0,0,0
F2024_10,stimuli/tones/silence.wav,0.75,146,noResp,NA,W_4,stimuli/Baron6dB/070203.wav,stimuli/Charlie/000001.wav,stimuli/Ringo/010003.wav,NA,1,silence,silence,W_4,1,0,0,1,0
F2024_10,stimuli/tones/silence.wav,0.75,147,noResp,NA,W_1,stimuli/Baron6dB/070200.wav,stimuli/Charlie/000301.wav,stimuli/Ringo/010102.wav,NA,1,silence,silence,W_1,1,0,0,1,0
F2024_10,stimuli/tones/silence.wav,2,148,noResp,NA,R_1,stimuli/Baron6dB/070100.wav,stimuli/Hopper/030201.wav,stimuli/Ringo/010302.wav,NA,1,silence,silence,R_1,1,0,0,1,0
F2024_10,stimuli/tones/silence.wav,1.25,149,noResp,NA,G_1,stimuli/Baron6dB/070300.wav,stimuli/Ringo/010302.wav,stimuli/Eagle/060200.wav,NA,1,silence,silence,G_1,1,0,0,1,0
F2024_10,stimuli/tones/PercTri-21dB.wav,2,150,space,2.5359,R_4,stimuli/Baron6dB/070103.wav,stimuli/Charlie/000201.wav,stimuli/Hopper/030002.wav,NA,1,-21dB,PercTri,R_4,1,1,0,0,0
F2024_10,stimuli/tones/PercTri-27dB.wav,1.25,151,space,1.9083,G_2,stimuli/Baron6dB/070301.wav,stimuli/Laker/020300.wav,stimuli/Eagle/060001.wav,NA,1,-27dB,PercTri,G_2,1,1,0,0,0
F2024_10,stimuli/tones/silence.wav,2,152,noResp,NA,R_3,stimuli/Baron6dB/070102.wav,stimuli/Tiger/050101.wav,stimuli/Eagle/060000.wav,NA,1,silence,silence,R_3,1,0,0,1,0
F2024_10,stimuli/tones/FlatIEC-33dB.wav,0.75,153,noResp,NA,B_2,stimuli/Baron6dB/070001.wav,stimuli/Ringo/010103.wav,stimuli/Tiger/050201.wav,NA,0,-33dB,Flat,B_2,1,0,1,0,0
F2024_10,stimuli/tones/silence.wav,2,154,noResp,NA,G_4,stimuli/Baron6dB/070303.wav,stimuli/Laker/020202.wav,stimuli/Charlie/000103.wav,NA,1,silence,silence,G_4,1,0,0,1,0
F2024_10,stimuli/tones/PercTri-18dB.wav,0.75,155,space,1.3447,R_2,stimuli/Baron6dB/070101.wav,stimuli/Hopper/030200.wav,stimuli/Tiger/050300.wav,NA,1,-18dB,PercTri,R_2,1,1,0,0,0
F2024_10,stimuli/tones/PercTri-33dB.wav,0.75,156,noResp,NA,B_4,stimuli/Baron6dB/070003.wav,stimuli/Ringo/010300.wav,stimuli/Charlie/000202.wav,NA,0,-33dB,PercTri,B_4,1,0,1,0,0
F2024_10,stimuli/tones/FlatIEC-30dB.wav,2,157,space,0.9435,G_3,stimuli/Baron6dB/070302.wav,stimuli/Ringo/010200.wav,stimuli/Tiger/050002.wav,NA,1,-30dB,Flat,G_3,1,1,0,0,0
F2024_10,stimuli/tones/FlatIEC-24dB.wav,0.75,158,space,2.3275,W_2,stimuli/Baron6dB/070201.wav,stimuli/Arrow/040201.wav,stimuli/Laker/020100.wav,NA,1,-24dB,Flat,W_2,1,1,0,0,0
F2024_10,stimuli/tones/silence.wav,1.25,159,noResp,NA,B_3,stimuli/Baron6dB/070002.wav,stimuli/Hopper/030100.wav,stimuli/Charlie/000100.wav,NA,1,silence,silence,B_3,1,0,0,1,0
F2024_10,stimuli/tones/PercTri-27dB.wav,1.25,160,space,1.7496,W_1,stimuli/Baron6dB/070000.wav,stimuli/Hopper/030003.wav,stimuli/Hopper/030100.wav,NA,1,-27dB,PercTri,B_1,0,1,0,0,0
F2024_10,stimuli/tones/silence.wav,1.25,161,noResp,NA,W_2,stimuli/Baron6dB/070201.wav,stimuli/Tiger/050200.wav,stimuli/Hopper/030201.wav,NA,1,silence,silence,W_2,1,0,0,1,0
F2024_10,stimuli/tones/silence.wav,2,162,noResp,NA,W_1,stimuli/Baron6dB/070200.wav,stimuli/Eagle/060203.wav,stimuli/Hopper/030202.wav,NA,1,silence,silence,W_1,1,0,0,1,0
F2024_10,stimuli/tones/silence.wav,1.25,163,noResp,NA,B_4,stimuli/Baron6dB/070103.wav,stimuli/Arrow/040002.wav,stimuli/Charlie/000000.wav,NA,1,silence,silence,R_4,0,0,0,1,0
F2024_10,stimuli/tones/PercTri-30dB.wav,1.25,164,noResp,NA,G_4,stimuli/Baron6dB/070303.wav,stimuli/Hopper/030002.wav,stimuli/Arrow/040000.wav,NA,0,-30dB,PercTri,G_4,1,0,1,0,0
F2024_10,stimuli/tones/silence.wav,0.75,165,space,0.0953,G_3,stimuli/Baron6dB/070302.wav,stimuli/Laker/020302.wav,stimuli/Hopper/030102.wav,NA,0,silence,silence,G_3,1,0,0,0,1
F2024_10,stimuli/tones/silence.wav,1.25,166,noResp,NA,R_2,stimuli/Baron6dB/070101.wav,stimuli/Hopper/030303.wav,stimuli/Eagle/060201.wav,NA,1,silence,silence,R_2,1,0,0,1,0
F2024_10,stimuli/tones/PercTri-30dB.wav,0.75,167,space,1.2773,G_1,stimuli/Baron6dB/070300.wav,stimuli/Hopper/030101.wav,stimuli/Tiger/050200.wav,NA,1,-30dB,PercTri,G_1,1,1,0,0,0
F2024_10,stimuli/tones/PercTri-21dB.wav,1.25,168,space,1.7434,R_1,stimuli/Baron6dB/070100.wav,stimuli/Tiger/050300.wav,stimuli/Tiger/050203.wav,NA,1,-21dB,PercTri,R_1,1,1,0,0,0
F2024_10,stimuli/tones/PercTri-27dB.wav,2,169,space,3.1671,R_3,stimuli/Baron6dB/070102.wav,stimuli/Laker/020001.wav,stimuli/Laker/020203.wav,NA,1,-27dB,PercTri,R_3,1,1,0,0,0
F2024_10,stimuli/tones/silence.wav,2,170,noResp,NA,B_3,stimuli/Baron6dB/070002.wav,stimuli/Ringo/010203.wav,stimuli/Laker/020302.wav,NA,1,silence,silence,B_3,1,0,0,1,0
F2024_10,stimuli/tones/silence.wav,0.75,171,noResp,NA,B_2,stimuli/Baron6dB/070001.wav,stimuli/Laker/020003.wav,stimuli/Laker/020200.wav,NA,1,silence,silence,B_2,1,0,0,1,0
F2024_10,stimuli/tones/FlatIEC-27dB.wav,0.75,172,noResp,NA,B_4,stimuli/Baron6dB/070003.wav,stimuli/Hopper/030000.wav,stimuli/Tiger/050202.wav,NA,0,-27dB,Flat,B_4,1,0,1,0,0
F2024_10,stimuli/tones/PercTri-24dB.wav,0.75,173,space,1.3179,G_3,stimuli/Baron6dB/070202.wav,stimuli/Eagle/060301.wav,stimuli/Eagle/060301.wav,NA,1,-24dB,PercTri,W_3,0,1,0,0,0
F2024_10,stimuli/tones/silence.wav,0.75,174,noResp,NA,G_2,stimuli/Baron6dB/070301.wav,stimuli/Ringo/010001.wav,stimuli/Arrow/040102.wav,NA,1,silence,silence,G_2,1,0,0,1,0
F2024_10,stimuli/tones/PercTri-21dB.wav,1.25,175,noResp,NA,W_4,stimuli/Baron6dB/070203.wav,stimuli/Charlie/000202.wav,stimuli/Arrow/040103.wav,NA,0,-21dB,PercTri,W_4,1,0,1,0,0
F2024_10,stimuli/tones/PercTri-18dB.wav,2,176,noResp,NA,B_1,stimuli/Baron6dB/070000.wav,stimuli/Ringo/010101.wav,stimuli/Laker/020001.wav,NA,0,-18dB,PercTri,B_1,1,0,1,0,0
F2024_10,stimuli/tones/silence.wav,1.25,177,space,0.5993,W_2,stimuli/Baron6dB/070201.wav,stimuli/Laker/020002.wav,stimuli/Ringo/010001.wav,NA,0,silence,silence,W_2,1,0,0,0,1
F2024_10,stimuli/tones/silence.wav,0.75,178,noResp,NA,G_2,stimuli/Baron6dB/070301.wav,stimuli/Laker/020101.wav,stimuli/Arrow/040002.wav,NA,1,silence,silence,G_2,1,0,0,1,0
F2024_10,stimuli/tones/PercTri-18dB.wav,1.25,179,space,1.7437,R_2,stimuli/Baron6dB/070101.wav,stimuli/Laker/020203.wav,stimuli/Tiger/050101.wav,NA,1,-18dB,PercTri,R_2,1,1,0,0,0
F2024_10,stimuli/tones/silence.wav,0.75,180,noResp,NA,R_1,stimuli/Baron6dB/070100.wav,stimuli/Arrow/040003.wav,stimuli/Eagle/060202.wav,NA,1,silence,silence,R_1,1,0,0,1,0
F2024_10,stimuli/tones/silence.wav,1.25,181,noResp,NA,R_3,stimuli/Baron6dB/070102.wav,stimuli/Charlie/000003.wav,stimuli/Ringo/010200.wav,NA,1,silence,silence,R_3,1,0,0,1,0
F2024_10,stimuli/tones/FlatIEC-27dB.wav,0.75,182,noResp,NA,G_3,stimuli/Baron6dB/070302.wav,stimuli/Laker/020102.wav,stimuli/Charlie/000101.wav,NA,0,-27dB,Flat,G_3,1,0,1,0,0
F2024_10,stimuli/tones/silence.wav,2,183,noResp,NA,G_4,stimuli/Baron6dB/070303.wav,stimuli/Arrow/040303.wav,stimuli/Laker/020201.wav,NA,1,silence,silence,G_4,1,0,0,1,0
F2024_10,stimuli/tones/silence.wav,0.75,184,noResp,NA,B_3,stimuli/Baron6dB/070002.wav,stimuli/Charlie/000200.wav,stimuli/Hopper/030301.wav,NA,1,silence,silence,B_3,1,0,0,1,0
F2024_10,stimuli/tones/FlatIEC-33dB.wav,2,185,noResp,NA,G_1,stimuli/Baron6dB/070300.wav,stimuli/Charlie/000000.wav,stimuli/Tiger/050100.wav,NA,0,-33dB,Flat,G_1,1,0,1,0,0
F2024_10,stimuli/tones/silence.wav,0.75,186,space,0.2503,W_1,stimuli/Baron6dB/070200.wav,stimuli/Eagle/060001.wav,stimuli/Ringo/010203.wav,NA,0,silence,silence,W_1,1,0,0,0,1
F2024_10,stimuli/tones/PercTri-18dB.wav,1.25,187,space,1.7677,R_4,stimuli/Baron6dB/070103.wav,stimuli/Eagle/060103.wav,stimuli/Hopper/030003.wav,NA,1,-18dB,PercTri,R_4,1,1,0,0,0
F2024_10,stimuli/tones/FlatIEC-18dB.wav,2,188,noResp,NA,W_4,stimuli/Baron6dB/070203.wav,stimuli/Eagle/060101.wav,stimuli/Ringo/010103.wav,NA,0,-18dB,Flat,W_4,1,0,1,0,0
F2024_10,stimuli/tones/silence.wav,1.25,189,space,1.2533,B_4,stimuli/Baron6dB/070003.wav,stimuli/Laker/020200.wav,stimuli/Charlie/000200.wav,NA,0,silence,silence,B_4,1,0,0,0,1
F2024_10,stimuli/tones/FlatIEC-21dB.wav,2,190,noResp,NA,B_2,stimuli/Baron6dB/070001.wav,stimuli/Arrow/040301.wav,stimuli/Tiger/050000.wav,NA,0,-21dB,Flat,B_2,1,0,1,0,0
F2024_10,stimuli/tones/silence.wav,0.75,191,noResp,NA,W_3,stimuli/Baron6dB/070202.wav,stimuli/Arrow/040202.wav,stimuli/Arrow/040101.wav,NA,1,silence,silence,W_3,1,0,0,1,0
F2024_10,stimuli/tones/silence.wav,2,192,noResp,NA,G_1,stimuli/Baron6dB/070300.wav,stimuli/Eagle/060100.wav,stimuli/Arrow/040100.wav,NA,1,silence,silence,G_1,1,0,0,1,0
F2024_10,stimuli/tones/FlatIEC-30dB.wav,1.25,193,noResp,NA,W_2,stimuli/Baron6dB/070201.wav,stimuli/Charlie/000002.wav,stimuli/Tiger/050103.wav,NA,0,-30dB,Flat,W_2,1,0,1,0,0
F2024_10,stimuli/tones/PercTri-27dB.wav,0.75,194,space,1.4087,B_2,stimuli/Baron6dB/070001.wav,stimuli/Laker/020201.wav,stimuli/Arrow/040203.wav,NA,1,-27dB,PercTri,B_2,1,1,0,0,0
F2024_10,stimuli/tones/silence.wav,1.25,195,noResp,NA,W_4,stimuli/Baron6dB/070203.wav,stimuli/Hopper/030202.wav,stimuli/Arrow/040001.wav,NA,1,silence,silence,W_4,1,0,0,1,0
F2024_10,stimuli/tones/silence.wav,0.75,196,noResp,NA,W_1,stimuli/Baron6dB/070200.wav,stimuli/Charlie/000103.wav,stimuli/Charlie/000302.wav,NA,1,silence,silence,W_1,1,0,0,1,0
F2024_10,stimuli/tones/silence.wav,2,197,noResp,NA,B_3,stimuli/Baron6dB/070002.wav,stimuli/Tiger/050301.wav,stimuli/Hopper/030103.wav,NA,1,silence,silence,B_3,1,0,0,1,0
F2024_10,stimuli/tones/silence.wav,2,198,noResp,NA,W_3,stimuli/Baron6dB/070202.wav,stimuli/Tiger/050001.wav,stimuli/Ringo/010301.wav,NA,1,silence,silence,W_3,1,0,0,1,0
F2024_10,stimuli/tones/PercTri-21dB.wav,2,199,space,2.6172,W_4,stimuli/Baron6dB/070303.wav,stimuli/Hopper/030302.wav,stimuli/Hopper/030101.wav,NA,1,-21dB,PercTri,G_4,0,1,0,0,0
F2024_10,stimuli/tones/FlatIEC-30dB.wav,1.25,200,noResp,NA,G_3,stimuli/Baron6dB/070302.wav,stimuli/Arrow/040203.wav,stimuli/Hopper/030000.wav,NA,0,-30dB,Flat,G_3,1,0,1,0,0
F2024_10,stimuli/tones/silence.wav,1.25,201,noResp,NA,R_2,stimuli/Baron6dB/070101.wav,stimuli/Laker/020000.wav,stimuli/Tiger/050302.wav,NA,1,silence,silence,R_2,1,0,0,1,0
F2024_10,stimuli/tones/FlatIEC-33dB.wav,0.75,202,noResp,NA,B_4,stimuli/Baron6dB/070003.wav,stimuli/Tiger/050000.wav,stimuli/Laker/020002.wav,NA,0,-33dB,Flat,B_4,1,0,1,0,0
F2024_10,stimuli/tones/silence.wav,1.25,203,noResp,NA,R_4,stimuli/Baron6dB/070103.wav,stimuli/Eagle/060201.wav,stimuli/Arrow/040300.wav,NA,1,silence,silence,R_4,1,0,0,1,0
F2024_10,stimuli/tones/silence.wav,2,204,noResp,NA,B_1,stimuli/Baron6dB/070000.wav,stimuli/Arrow/040001.wav,stimuli/Tiger/050102.wav,NA,1,silence,silence,B_1,1,0,0,1,0
F2024_10,stimuli/tones/silence.wav,2,205,noResp,NA,G_2,stimuli/Baron6dB/070301.wav,stimuli/Eagle/060300.wav,stimuli/Arrow/040202.wav,NA,1,silence,silence,G_2,1,0,0,1,0
F2024_10,stimuli/tones/FlatIEC-18dB.wav,0.75,206,noResp,NA,R_1,stimuli/Baron6dB/070100.wav,stimuli/Hopper/030103.wav,stimuli/Hopper/030200.wav,NA,0,-18dB,Flat,R_1,1,0,1,0,0
F2024_10,stimuli/tones/PercTri-24dB.wav,2,207,space,2.9159,R_3,stimuli/Baron6dB/070102.wav,stimuli/Tiger/050100.wav,stimuli/Laker/020003.wav,NA,1,-24dB,PercTri,R_3,1,1,0,0,0
F2024_10,stimuli/tones/silence.wav,2,208,noResp,NA,G_4,stimuli/Baron6dB/070303.wav,stimuli/Hopper/030300.wav,stimuli/Hopper/030302.wav,NA,1,silence,silence,G_4,1,0,0,1,0
F2024_10,stimuli/tones/silence.wav,0.75,209,noResp,NA,R_2,stimuli/Baron6dB/070101.wav,stimuli/Charlie/000302.wav,stimuli/Arrow/040301.wav,NA,1,silence,silence,R_2,1,0,0,1,0
F2024_10,stimuli/tones/FlatIEC-33dB.wav,0.75,210,noResp,NA,W_2,stimuli/Baron6dB/070201.wav,stimuli/Arrow/040101.wav,stimuli/Laker/020202.wav,NA,0,-33dB,Flat,W_2,1,0,1,0,0
F2024_10,stimuli/tones/FlatIEC-18dB.wav,1.25,211,noResp,NA,R_1,stimuli/Baron6dB/070100.wav,stimuli/Charlie/000203.wav,stimuli/Ringo/010101.wav,NA,0,-18dB,Flat,R_1,1,0,1,0,0
F2024_10,stimuli/tones/PercTri-33dB.wav,0.75,212,space,1.4994,W_4,stimuli/Baron6dB/070203.wav,stimuli/Ringo/010303.wav,stimuli/Tiger/050303.wav,NA,1,-33dB,PercTri,W_4,1,1,0,0,0
F2024_10,stimuli/tones/silence.wav,0.75,213,noResp,NA,B_1,stimuli/Baron6dB/070000.wav,stimuli/Arrow/040102.wav,stimuli/Ringo/010000.wav,NA,1,silence,silence,B_1,1,0,0,1,0
F2024_10,stimuli/tones/silence.wav,1.25,214,noResp,NA,W_1,stimuli/Baron6dB/070200.wav,stimuli/Ringo/010003.wav,stimuli/Laker/020000.wav,NA,1,silence,silence,W_1,1,0,0,1,0
F2024_10,stimuli/tones/silence.wav,2,215,space,2.8106,W_3,stimuli/Baron6dB/070202.wav,stimuli/Eagle/060000.wav,stimuli/Laker/020102.wav,NA,0,silence,silence,W_3,1,0,0,0,1
F2024_11,stimuli/tones/FlatIEC-21dB.wav,0.75,0,space,2.2946,B_4,stimuli/Baron6dB/070003.wav,stimuli/Eagle/060103.wav,stimuli/Eagle/060002.wav,NA,1,-21dB,Flat,B_4,1,1,0,0,0
F2024_11,stimuli/tones/FlatIEC-24dB.wav,1.25,1,space,1.6319,W_4,stimuli/Baron6dB/070203.wav,stimuli/Arrow/040003.wav,stimuli/Ringo/010302.wav,NA,1,-24dB,Flat,W_4,1,1,0,0,0
F2024_11,stimuli/tones/silence.wav,0.75,2,space,1.5591,B_3,stimuli/Baron6dB/070002.wav,stimuli/Arrow/040101.wav,stimuli/Charlie/000203.wav,NA,0,silence,silence,B_3,1,0,0,0,1
F2024_11,stimuli/tones/PercTri-27dB.wav,1.25,3,space,1.7585,W_4,stimuli/Baron6dB/070103.wav,stimuli/Hopper/030303.wav,stimuli/Laker/020203.wav,NA,1,-27dB,PercTri,R_4,0,1,0,0,0
F2024_11,stimuli/tones/silence.wav,0.75,4,space,2.4417,W_2,stimuli/Baron6dB/070201.wav,stimuli/Hopper/030203.wav,stimuli/Ringo/010200.wav,NA,0,silence,silence,W_2,1,0,0,0,1
F2024_11,stimuli/tones/silence.wav,1.25,5,noResp,NA,G_3,stimuli/Baron6dB/070302.wav,stimuli/Laker/020102.wav,stimuli/Charlie/000003.wav,NA,1,silence,silence,G_3,1,0,0,1,0
F2024_11,stimuli/tones/silence.wav,0.75,6,space,1.701,W_4,stimuli/Baron6dB/070303.wav,stimuli/Laker/020200.wav,stimuli/Hopper/030000.wav,NA,0,silence,silence,G_4,0,0,0,0,1
F2024_11,stimuli/tones/PercTri-33dB.wav,0.75,7,space,1.3489,R_1,stimuli/Baron6dB/070100.wav,stimuli/Laker/020002.wav,stimuli/Eagle/060000.wav,NA,1,-33dB,PercTri,R_1,1,1,0,0,0
F2024_11,stimuli/tones/silence.wav,2,8,space,1.6506,W_1,stimuli/Baron6dB/070200.wav,stimuli/Laker/020103.wav,stimuli/Arrow/040202.wav,NA,0,silence,silence,W_1,1,0,0,0,1
F2024_11,stimuli/tones/PercTri-18dB.wav,2,9,space,2.9667,W_3,stimuli/Baron6dB/070102.wav,stimuli/Tiger/050003.wav,stimuli/Charlie/000202.wav,NA,1,-18dB,PercTri,R_3,0,1,0,0,0
F2024_11,stimuli/tones/PercTri-24dB.wav,1.25,10,space,1.4837,B_2,stimuli/Baron6dB/070001.wav,stimuli/Arrow/040300.wav,stimuli/Tiger/050101.wav,NA,1,-24dB,PercTri,B_2,1,1,0,0,0
F2024_11,stimuli/tones/PercTri-24dB.wav,2,11,space,1.8343,G_2,stimuli/Baron6dB/070301.wav,stimuli/Ringo/010001.wav,stimuli/Hopper/030301.wav,NA,1,-24dB,PercTri,G_2,1,1,0,0,0
F2024_11,stimuli/tones/silence.wav,1.25,12,space,1.9577,G_1,stimuli/Baron6dB/070300.wav,stimuli/Hopper/030103.wav,stimuli/Charlie/000303.wav,NA,0,silence,silence,G_1,1,0,0,0,1
F2024_11,stimuli/tones/silence.wav,0.75,13,noResp,NA,G_2,stimuli/Baron6dB/070101.wav,stimuli/Tiger/050000.wav,stimuli/Laker/020102.wav,NA,1,silence,silence,R_2,0,0,0,1,0
F2024_11,stimuli/tones/silence.wav,2,14,space,1.3764,B_1,stimuli/Baron6dB/070000.wav,stimuli/Hopper/030202.wav,stimuli/Tiger/050100.wav,NA,0,silence,silence,B_1,1,0,0,0,1
F2024_11,stimuli/tones/silence.wav,1.25,15,space,2.213,W_3,stimuli/Baron6dB/070202.wav,stimuli/Tiger/050300.wav,stimuli/Laker/020101.wav,NA,0,silence,silence,W_3,1,0,0,0,1
F2024_11,stimuli/tones/PercTri-18dB.wav,0.75,16,space,1.5399,W_4,stimuli/Baron6dB/070103.wav,stimuli/Eagle/060100.wav,stimuli/Tiger/050303.wav,NA,1,-18dB,PercTri,R_4,0,1,0,0,0
F2024_11,stimuli/tones/PercTri-21dB.wav,2,17,space,1.621,G_3,stimuli/Baron6dB/070001.wav,stimuli/Arrow/040301.wav,stimuli/Hopper/030200.wav,NA,1,-21dB,PercTri,B_2,0,1,0,0,0
F2024_11,stimuli/tones/silence.wav,0.75,18,noResp,NA,G_2,stimuli/Baron6dB/070301.wav,stimuli/Charlie/000202.wav,stimuli/Arrow/040201.wav,NA,1,silence,silence,G_2,1,0,0,1,0
F2024_11,stimuli/tones/PercTri-24dB.wav,2,19,space,1.4835,G_1,stimuli/Baron6dB/070300.wav,stimuli/Arrow/040000.wav,stimuli/Tiger/050000.wav,NA,1,-24dB,PercTri,G_1,1,1,0,0,0
F2024_11,stimuli/tones/FlatIEC-30dB.wav,2,20,noResp,NA,R_2,stimuli/Baron6dB/070100.wav,stimuli/Eagle/060000.wav,stimuli/Hopper/030001.wav,NA,0,-30dB,Flat,R_1,0,0,1,0,0
F2024_11,stimuli/tones/PercTri-27dB.wav,1.25,21,space,1.4251,W_3,stimuli/Baron6dB/070202.wav,stimuli/Ringo/010202.wav,stimuli/Tiger/050202.wav,NA,1,-27dB,PercTri,W_3,1,1,0,0,0
F2024_11,stimuli/tones/FlatIEC-18dB.wav,2,22,space,2.7344,G_3,stimuli/Baron6dB/070302.wav,stimuli/Arrow/040302.wav,stimuli/Ringo/010102.wav,NA,1,-18dB,Flat,G_3,1,1,0,0,0
F2024_11,stimuli/tones/silence.wav,2,23,space,2.2502,W_4,stimuli/Baron6dB/070203.wav,stimuli/Charlie/000000.wav,stimuli/Tiger/050203.wav,NA,0,silence,silence,W_4,1,0,0,0,1
F2024_11,stimuli/tones/PercTri-18dB.wav,1.25,24,space,1.5848,W_1,stimuli/Baron6dB/070200.wav,stimuli/Eagle/060001.wav,stimuli/Eagle/060201.wav,NA,1,-18dB,PercTri,W_1,1,1,0,0,0
F2024_11,stimuli/tones/PercTri-30dB.wav,1.25,25,space,1.7991,W_3,stimuli/Baron6dB/070102.wav,stimuli/Eagle/060302.wav,stimuli/Laker/020000.wav,NA,1,-30dB,PercTri,R_3,0,1,0,0,0
F2024_11,stimuli/tones/silence.wav,0.75,26,space,2.0985,G_4,stimuli/Baron6dB/070303.wav,stimuli/Charlie/000200.wav,stimuli/Charlie/000302.wav,NA,0,silence,silence,G_4,1,0,0,0,1
F2024_11,stimuli/tones/silence.wav,0.75,27,space,2.0164,B_1,stimuli/Baron6dB/070000.wav,stimuli/Laker/020301.wav,stimuli/Laker/020100.wav,NA,0,silence,silence,B_1,1,0,0,0,1
F2024_11,stimuli/tones/PercTri-30dB.wav,2,28,space,2.2857,B_3,stimuli/Baron6dB/070002.wav,stimuli/Laker/020202.wav,stimuli/Ringo/010001.wav,NA,1,-30dB,PercTri,B_3,1,1,0,0,0
F2024_11,stimuli/tones/FlatIEC-27dB.wav,2,29,space,3.5926,B_2,stimuli/Baron6dB/070101.wav,stimuli/Hopper/030000.wav,stimuli/Arrow/040300.wav,NA,1,-27dB,Flat,R_2,0,1,0,0,0
F2024_11,stimuli/tones/FlatIEC-30dB.wav,0.75,30,space,1.8428,W_2,stimuli/Baron6dB/070201.wav,stimuli/Ringo/010301.wav,stimuli/Ringo/010201.wav,NA,1,-30dB,Flat,W_2,1,1,0,0,0
F2024_11,stimuli/tones/FlatIEC-27dB.wav,0.75,31,space,2.0091,B_4,stimuli/Baron6dB/070003.wav,stimuli/Ringo/010200.wav,stimuli/Laker/020200.wav,NA,1,-27dB,Flat,B_4,1,1,0,0,0
F2024_11,stimuli/tones/silence.wav,2,32,noResp,NA,G_1,stimuli/Baron6dB/070300.wav,stimuli/Laker/020000.wav,stimuli/Hopper/030100.wav,NA,1,silence,silence,G_1,1,0,0,1,0
F2024_11,stimuli/tones/PercTri-33dB.wav,0.75,33,space,1.3435,B_3,stimuli/Baron6dB/070101.wav,stimuli/Eagle/060300.wav,stimuli/Ringo/010300.wav,NA,1,-33dB,PercTri,R_2,0,1,0,0,0
F2024_11,stimuli/tones/FlatIEC-21dB.wav,2,34,space,2.5933,W_1,stimuli/Baron6dB/070202.wav,stimuli/Charlie/000103.wav,stimuli/Eagle/060102.wav,NA,1,-21dB,Flat,W_3,0,1,0,0,0
F2024_11,stimuli/tones/silence.wav,1.25,35,noResp,NA,G_3,stimuli/Baron6dB/070302.wav,stimuli/Arrow/040200.wav,stimuli/Laker/020302.wav,NA,1,silence,silence,G_3,1,0,0,1,0
F2024_11,stimuli/tones/silence.wav,0.75,36,space,2.1428,W_2,stimuli/Baron6dB/070303.wav,stimuli/Charlie/000100.wav,stimuli/Tiger/050001.wav,NA,0,silence,silence,G_4,0,0,0,0,1
F2024_11,stimuli/tones/FlatIEC-30dB.wav,0.75,37,space,2.4769,R_4,stimuli/Baron6dB/070103.wav,stimuli/Charlie/000002.wav,stimuli/Charlie/000001.wav,NA,1,-30dB,Flat,R_4,1,1,0,0,0
F2024_11,stimuli/tones/FlatIEC-24dB.wav,2,38,space,2.8643,W_1,stimuli/Baron6dB/070200.wav,stimuli/Arrow/040203.wav,stimuli/Tiger/050201.wav,NA,1,-24dB,Flat,W_1,1,1,0,0,0
F2024_11,stimuli/tones/PercTri-24dB.wav,0.75,39,space,2.2427,W_2,stimuli/Baron6dB/070201.wav,stimuli/Ringo/010300.wav,stimuli/Eagle/060003.wav,NA,1,-24dB,PercTri,W_2,1,1,0,0,0
F2024_11,stimuli/tones/silence.wav,2,40,space,2.5661,G_2,stimuli/Baron6dB/070301.wav,stimuli/Hopper/030200.wav,stimuli/Ringo/010203.wav,NA,0,silence,silence,G_2,1,0,0,0,1
F2024_11,stimuli/tones/silence.wav,0.75,41,noResp,NA,W_4,stimuli/Baron6dB/070203.wav,stimuli/Arrow/040100.wav,stimuli/Arrow/040100.wav,NA,1,silence,silence,W_4,1,0,0,1,0
F2024_11,stimuli/tones/silence.wav,2,42,space,1.7103,B_1,stimuli/Baron6dB/070000.wav,stimuli/Charlie/000303.wav,stimuli/Tiger/050102.wav,NA,0,silence,silence,B_1,1,0,0,0,1
F2024_11,stimuli/tones/silence.wav,0.75,43,noResp,NA,B_2,stimuli/Baron6dB/070001.wav,stimuli/Charlie/000003.wav,stimuli/Ringo/010202.wav,NA,1,silence,silence,B_2,1,0,0,1,0
F2024_11,stimuli/tones/FlatIEC-18dB.wav,0.75,44,space,2.4687,B_2,stimuli/Baron6dB/070002.wav,stimuli/Hopper/030001.wav,stimuli/Charlie/000101.wav,NA,1,-18dB,Flat,B_3,0,1,0,0,0
F2024_11,stimuli/tones/FlatIEC-18dB.wav,0.75,45,space,1.3829,W_3,stimuli/Baron6dB/070102.wav,stimuli/Laker/020003.wav,stimuli/Charlie/000100.wav,NA,1,-18dB,Flat,R_3,0,1,0,0,0
F2024_11,stimuli/tones/silence.wav,0.75,46,noResp,NA,B_4,stimuli/Baron6dB/070003.wav,stimuli/Eagle/060003.wav,stimuli/Eagle/060200.wav,NA,1,silence,silence,B_4,1,0,0,1,0
F2024_11,stimuli/tones/FlatIEC-30dB.wav,2,47,space,2.7769,R_1,stimuli/Baron6dB/070100.wav,stimuli/Tiger/050103.wav,stimuli/Ringo/010002.wav,NA,1,-30dB,Flat,R_1,1,1,0,0,0
F2024_11,stimuli/tones/silence.wav,2,48,space,2.4192,W_4,stimuli/Baron6dB/070203.wav,stimuli/Eagle/060203.wav,stimuli/Eagle/060303.wav,NA,0,silence,silence,W_4,1,0,0,0,1
F2024_11,stimuli/tones/silence.wav,2,49,space,2.6663,B_1,stimuli/Baron6dB/070000.wav,stimuli/Hopper/030301.wav,stimuli/Tiger/050302.wav,NA,0,silence,silence,B_1,1,0,0,0,1
F2024_11,stimuli/tones/PercTri-21dB.wav,2,50,space,2.2657,R_4,stimuli/Baron6dB/070103.wav,stimuli/Ringo/010100.wav,stimuli/Eagle/060302.wav,NA,1,-21dB,PercTri,R_4,1,1,0,0,0
F2024_11,stimuli/tones/FlatIEC-33dB.wav,1.25,51,space,2.121,G_4,stimuli/Baron6dB/070303.wav,stimuli/Arrow/040002.wav,stimuli/Ringo/010100.wav,NA,1,-33dB,Flat,G_4,1,1,0,0,0
F2024_11,stimuli/tones/silence.wav,2,52,space,2.4596,G_2,stimuli/Baron6dB/070301.wav,stimuli/Laker/020303.wav,stimuli/Arrow/040000.wav,NA,0,silence,silence,G_2,1,0,0,0,1
F2024_11,stimuli/tones/FlatIEC-30dB.wav,2,53,space,3.0809,B_2,stimuli/Baron6dB/070001.wav,stimuli/Tiger/050302.wav,stimuli/Tiger/050002.wav,NA,1,-30dB,Flat,B_2,1,1,0,0,0
F2024_11,stimuli/tones/PercTri-30dB.wav,0.75,54,noResp,NA,W_1,stimuli/Baron6dB/070200.wav,stimuli/Eagle/060002.wav,stimuli/Ringo/010101.wav,NA,0,-30dB,PercTri,W_1,1,0,1,0,0
F2024_11,stimuli/tones/silence.wav,2,55,noResp,NA,B_3,stimuli/Baron6dB/070002.wav,stimuli/Arrow/040102.wav,stimuli/Ringo/010301.wav,NA,1,silence,silence,B_3,1,0,0,1,0
F2024_11,stimuli/tones/silence.wav,2,56,noResp,NA,R_1,stimuli/Baron6dB/070100.wav,stimuli/Hopper/030002.wav,stimuli/Laker/020301.wav,NA,1,silence,silence,R_1,1,0,0,1,0
F2024_11,stimuli/tones/silence.wav,1.25,57,noResp,NA,W_3,stimuli/Baron6dB/070202.wav,stimuli/Ringo/010201.wav,stimuli/Charlie/000000.wav,NA,1,silence,silence,W_3,1,0,0,1,0
F2024_11,stimuli/tones/FlatIEC-30dB.wav,1.25,58,space,2.7685,W_2,stimuli/Baron6dB/070201.wav,stimuli/Eagle/060303.wav,stimuli/Tiger/050301.wav,NA,1,-30dB,Flat,W_2,1,1,0,0,0
F2024_11,stimuli/tones/silence.wav,2,59,noResp,NA,G_3,stimuli/Baron6dB/070101.wav,stimuli/Eagle/060200.wav,stimuli/Arrow/040003.wav,NA,1,silence,silence,R_2,0,0,0,1,0
F2024_11,stimuli/tones/silence.wav,1.25,60,noResp,NA,G_3,stimuli/Baron6dB/070302.wav,stimuli/Laker/020100.wav,stimuli/Ringo/010103.wav,NA,1,silence,silence,G_3,1,0,0,1,0
F2024_11,stimuli/tones/silence.wav,0.75,61,noResp,NA,R_3,stimuli/Baron6dB/070102.wav,stimuli/Hopper/030302.wav,stimuli/Tiger/050003.wav,NA,1,silence,silence,R_3,1,0,0,1,0
F2024_11,stimuli/tones/silence.wav,0.75,62,noResp,NA,B_4,stimuli/Baron6dB/070003.wav,stimuli/Eagle/060101.wav,stimuli/Hopper/030003.wav,NA,1,silence,silence,B_4,1,0,0,1,0
F2024_11,stimuli/tones/FlatIEC-24dB.wav,2,63,space,3.0254,B_3,stimuli/Baron6dB/070300.wav,stimuli/Tiger/050100.wav,stimuli/Arrow/040002.wav,NA,1,-24dB,Flat,G_1,0,1,0,0,0
F2024_11,stimuli/tones/silence.wav,1.25,64,noResp,NA,W_2,stimuli/Baron6dB/070201.wav,stimuli/Tiger/050001.wav,stimuli/Laker/020201.wav,NA,1,silence,silence,W_2,1,0,0,1,0
F2024_11,stimuli/tones/PercTri-27dB.wav,2,65,space,2.9582,R_3,stimuli/Baron6dB/070102.wav,stimuli/Charlie/000302.wav,stimuli/Arrow/040103.wav,NA,1,-27dB,PercTri,R_3,1,1,0,0,0
F2024_11,stimuli/tones/silence.wav,1.25,66,noResp,NA,B_1,stimuli/Baron6dB/070000.wav,stimuli/Arrow/040001.wav,stimuli/Charlie/000103.wav,NA,1,silence,silence,B_1,1,0,0,1,0
F2024_11,stimuli/tones/PercTri-21dB.wav,0.75,67,space,1.209,W_2,stimuli/Baron6dB/070103.wav,stimuli/Hopper/030201.wav,stimuli/Charlie/000201.wav,NA,1,-21dB,PercTri,R_4,0,1,0,0,0
F2024_11,stimuli/tones/silence.wav,2,68,noResp,NA,W_4,stimuli/Baron6dB/070203.wav,stimuli/Laker/020201.wav,stimuli/Tiger/050200.wav,NA,1,silence,silence,W_4,1,0,0,1,0
F2024_11,stimuli/tones/FlatIEC-33dB.wav,2,69,space,3.062,B_3,stimuli/Baron6dB/070002.wav,stimuli/Ringo/010303.wav,stimuli/Arrow/040302.wav,NA,1,-33dB,Flat,B_3,1,1,0,0,0
F2024_11,stimuli/tones/silence.wav,2,70,space,0.2768,W_3,stimuli/Baron6dB/070202.wav,stimuli/Eagle/060102.wav,stimuli/Ringo/010000.wav,NA,0,silence,silence,W_3,1,0,0,0,1
F2024_11,stimuli/tones/FlatIEC-27dB.wav,1.25,71,space,1.7278,W_2,stimuli/Baron6dB/070003.wav,stimuli/Eagle/060301.wav,stimuli/Charlie/000002.wav,NA,1,-27dB,Flat,B_4,0,1,0,0,0
F2024_11,stimuli/tones/PercTri-18dB.wav,1.25,72,noResp,NA,W_2,stimuli/Baron6dB/070101.wav,stimuli/Ringo/010000.wav,stimuli/Hopper/030002.wav,NA,0,-18dB,PercTri,R_2,0,0,1,0,0
F2024_11,stimuli/tones/FlatIEC-33dB.wav,2,73,space,3.6264,R_4,stimuli/Baron6dB/070303.wav,stimuli/Tiger/050002.wav,stimuli/Hopper/030300.wav,NA,1,-33dB,Flat,G_4,0,1,0,0,0
F2024_11,stimuli/tones/PercTri-24dB.wav,1.25,74,space,1.7093,G_1,stimuli/Baron6dB/070300.wav,stimuli/Eagle/060201.wav,stimuli/Eagle/060203.wav,NA,1,-24dB,PercTri,G_1,1,1,0,0,0
F2024_11,stimuli/tones/silence.wav,1.25,75,space,2.0666,G_2,stimuli/Baron6dB/070301.wav,stimuli/Charlie/000201.wav,stimuli/Laker/020103.wav,NA,0,silence,silence,G_2,1,0,0,0,1
F2024_11,stimuli/tones/PercTri-27dB.wav,0.75,76,space,2.1664,G_2,stimuli/Baron6dB/070200.wav,stimuli/Laker/020203.wav,stimuli/Arrow/040101.wav,NA,1,-27dB,PercTri,W_1,0,1,0,0,0
F2024_11,stimuli/tones/silence.wav,2,77,noResp,NA,G_3,stimuli/Baron6dB/070302.wav,stimuli/Arrow/040303.wav,stimuli/Laker/020303.wav,NA,1,silence,silence,G_3,1,0,0,1,0
F2024_11,stimuli/tones/silence.wav,2,78,noResp,NA,B_2,stimuli/Baron6dB/070001.wav,stimuli/Tiger/050203.wav,stimuli/Tiger/050300.wav,NA,1,silence,silence,B_2,1,0,0,1,0
F2024_11,stimuli/tones/FlatIEC-27dB.wav,2,79,space,2.7261,R_1,stimuli/Baron6dB/070100.wav,stimuli/Ringo/010101.wav,stimuli/Ringo/010003.wav,NA,1,-27dB,Flat,R_1,1,1,0,0,0
F2024_11,stimuli/tones/PercTri-24dB.wav,2,80,space,4.6356,G_4,stimuli/Baron6dB/070303.wav,stimuli/Ringo/010003.wav,stimuli/Hopper/030302.wav,NA,1,-24dB,PercTri,G_4,1,1,0,0,0
F2024_11,stimuli/tones/silence.wav,0.75,81,noResp,NA,R_2,stimuli/Baron6dB/070101.wav,stimuli/Ringo/010302.wav,stimuli/Charlie/000300.wav,NA,1,silence,silence,R_2,1,0,0,1,0
F2024_11,stimuli/tones/silence.wav,0.75,82,noResp,NA,B_1,stimuli/Baron6dB/070000.wav,stimuli/Ringo/010103.wav,stimuli/Hopper/030201.wav,NA,1,silence,silence,B_1,1,0,0,1,0
F2024_11,stimuli/tones/PercTri-27dB.wav,2,83,noResp,NA,R_3,stimuli/Baron6dB/070102.wav,stimuli/Eagle/060202.wav,stimuli/Eagle/060101.wav,NA,0,-27dB,PercTri,R_3,1,0,1,0,0
F2024_11,stimuli/tones/silence.wav,1.25,84,noResp,NA,R_4,stimuli/Baron6dB/070103.wav,stimuli/Charlie/000001.wav,stimuli/Hopper/030303.wav,NA,1,silence,silence,R_4,1,0,0,1,0
F2024_11,stimuli/tones/PercTri-27dB.wav,0.75,85,space,1.5258,R_1,stimuli/Baron6dB/070100.wav,stimuli/Laker/020001.wav,stimuli/Tiger/050103.wav,NA,1,-27dB,PercTri,R_1,1,1,0,0,0
F2024_11,stimuli/tones/FlatIEC-27dB.wav,2,86,space,3.3808,W_3,stimuli/Baron6dB/070202.wav,stimuli/Ringo/010203.wav,stimuli/Arrow/040303.wav,NA,1,-27dB,Flat,W_3,1,1,0,0,0
F2024_11,stimuli/tones/silence.wav,2,87,noResp,NA,B_4,stimuli/Baron6dB/070003.wav,stimuli/Charlie/000101.wav,stimuli/Hopper/030203.wav,NA,1,silence,silence,B_4,1,0,0,1,0
F2024_11,stimuli/tones/silence.wav,1.25,88,noResp,NA,G_2,stimuli/Baron6dB/070301.wav,stimuli/Hopper/030003.wav,stimuli/Eagle/060300.wav,NA,1,silence,silence,G_2,1,0,0,1,0
F2024_11,stimuli/tones/FlatIEC-18dB.wav,1.25,89,space,1.3321,W_2,stimuli/Baron6dB/070201.wav,stimuli/Tiger/050303.wav,stimuli/Arrow/040301.wav,NA,1,-18dB,Flat,W_2,1,1,0,0,0
F2024_11,stimuli/tones/silence.wav,2,90,noResp,NA,W_1,stimuli/Baron6dB/070200.wav,stimuli/Tiger/050101.wav,stimuli/Eagle/060202.wav,NA,1,silence,silence,W_1,1,0,0,1,0
F2024_11,stimuli/tones/PercTri-21dB.wav,1.25,91,space,1.6325,G_2,stimuli/Baron6dB/070300.wav,stimuli/Arrow/040201.wav,stimuli/Laker/020202.wav,NA,1,-21dB,PercTri,G_1,0,1,0,0,0
F2024_11,stimuli/tones/silence.wav,1.25,92,noResp,NA,B_2,stimuli/Baron6dB/070001.wav,stimuli/Tiger/050200.wav,stimuli/Laker/020003.wav,NA,1,silence,silence,B_2,1,0,0,1,0
F2024_11,stimuli/tones/silence.wav,1.25,93,noResp,NA,G_3,stimuli/Baron6dB/070302.wav,stimuli/Laker/020300.wav,stimuli/Hopper/030103.wav,NA,1,silence,silence,G_3,1,0,0,1,0
F2024_11,stimuli/tones/FlatIEC-33dB.wav,1.25,94,space,2.4996,B_3,stimuli/Baron6dB/070002.wav,stimuli/Charlie/000301.wav,stimuli/Eagle/060001.wav,NA,1,-33dB,Flat,B_3,1,1,0,0,0
F2024_11,stimuli/tones/silence.wav,0.75,95,noResp,NA,W_4,stimuli/Baron6dB/070203.wav,stimuli/Hopper/030102.wav,stimuli/Hopper/030101.wav,NA,1,silence,silence,W_4,1,0,0,1,0
F2024_11,stimuli/tones/silence.wav,1.25,96,noResp,NA,B_1,stimuli/Baron6dB/070000.wav,stimuli/Charlie/000300.wav,stimuli/Arrow/040200.wav,NA,1,silence,silence,B_1,1,0,0,1,0
F2024_11,stimuli/tones/FlatIEC-18dB.wav,1.25,97,space,2.4436,W_2,stimuli/Baron6dB/070201.wav,stimuli/Laker/020302.wav,stimuli/Arrow/040203.wav,NA,1,-18dB,Flat,W_2,1,1,0,0,0
F2024_11,stimuli/tones/FlatIEC-24dB.wav,1.25,98,space,2.0517,R_3,stimuli/Baron6dB/070102.wav,stimuli/Arrow/040103.wav,stimuli/Arrow/040102.wav,NA,1,-24dB,Flat,R_3,1,1,0,0,0
F2024_11,stimuli/tones/FlatIEC-33dB.wav,1.25,99,space,2.5507,G_2,stimuli/Baron6dB/070301.wav,stimuli/Tiger/050301.wav,stimuli/Hopper/030102.wav,NA,1,-33dB,Flat,G_2,1,1,0,0,0
F2024_11,stimuli/tones/silence.wav,1.25,100,noResp,NA,W_1,stimuli/Baron6dB/070100.wav,stimuli/Hopper/030300.wav,stimuli/Laker/020300.wav,NA,1,silence,silence,R_1,0,0,0,1,0
F2024_11,stimuli/tones/silence.wav,1.25,101,space,2.2171,G_4,stimuli/Baron6dB/070303.wav,stimuli/Arrow/040202.wav,stimuli/Charlie/000102.wav,NA,0,silence,silence,G_4,1,0,0,0,1
F2024_11,stimuli/tones/silence.wav,1.25,102,noResp,NA,G_3,stimuli/Baron6dB/070302.wav,stimuli/Tiger/050201.wav,stimuli/Eagle/060301.wav,NA,1,silence,silence,G_3,1,0,0,1,0
F2024_11,stimuli/tones/FlatIEC-18dB.wav,0.75,103,space,2.3491,R_4,stimuli/Baron6dB/070101.wav,stimuli/Hopper/030101.wav,stimuli/Eagle/060103.wav,NA,1,-18dB,Flat,R_2,0,1,0,0,0
F2024_11,stimuli/tones/FlatIEC-18dB.wav,2,104,space,2.8463,B_4,stimuli/Baron6dB/070003.wav,stimuli/Tiger/050102.wav,stimuli/Hopper/030202.wav,NA,1,-18dB,Flat,B_4,1,1,0,0,0
F2024_11,stimuli/tones/silence.wav,2,105,noResp,NA,B_1,stimuli/Baron6dB/070203.wav,stimuli/Hopper/030100.wav,stimuli/Arrow/040001.wav,NA,1,silence,silence,W_4,0,0,0,1,0
F2024_11,stimuli/tones/silence.wav,1.25,106,noResp,NA,W_1,stimuli/Baron6dB/070202.wav,stimuli/Laker/020101.wav,stimuli/Eagle/060100.wav,NA,1,silence,silence,W_3,0,0,0,1,0
F2024_11,stimuli/tones/FlatIEC-33dB.wav,0.75,107,space,2.3168,R_4,stimuli/Baron6dB/070103.wav,stimuli/Ringo/010002.wav,stimuli/Ringo/010303.wav,NA,1,-33dB,Flat,R_4,1,1,0,0,0
F2024_11,stimuli/tones/silence.wav,2,108,noResp,NA,B_3,stimuli/Baron6dB/070002.wav,stimuli/Tiger/050202.wav,stimuli/Charlie/000200.wav,NA,1,silence,silence,B_3,1,0,0,1,0
F2024_11,stimuli/tones/PercTri-33dB.wav,2,109,space,2.4702,W_1,stimuli/Baron6dB/070200.wav,stimuli/Charlie/000203.wav,stimuli/Laker/020002.wav,NA,1,-33dB,PercTri,W_1,1,1,0,0,0
F2024_11,stimuli/tones/PercTri-21dB.wav,0.75,110,noResp,NA,B_2,stimuli/Baron6dB/070001.wav,stimuli/Charlie/000102.wav,stimuli/Laker/020001.wav,NA,0,-21dB,PercTri,B_2,1,0,1,0,0
F2024_11,stimuli/tones/silence.wav,2,111,space,2.0101,B_2,stimuli/Baron6dB/070300.wav,stimuli/Ringo/010102.wav,stimuli/Charlie/000301.wav,NA,0,silence,silence,G_1,0,0,0,0,1
F2024_11,stimuli/tones/silence.wav,0.75,112,noResp,NA,R_4,stimuli/Baron6dB/070103.wav,stimuli/Eagle/060303.wav,stimuli/Laker/020303.wav,NA,1,silence,silence,R_4,1,0,0,1,0
F2024_11,stimuli/tones/FlatIEC-27dB.wav,0.75,113,noResp,NA,W_4,stimuli/Baron6dB/070203.wav,stimuli/Eagle/060102.wav,stimuli/Tiger/050203.wav,NA,0,-27dB,Flat,W_4,1,0,1,0,0
F2024_11,stimuli/tones/FlatIEC-27dB.wav,0.75,114,noResp,NA,R_2,stimuli/Baron6dB/070101.wav,stimuli/Laker/020100.wav,stimuli/Charlie/000300.wav,NA,0,-27dB,Flat,R_2,1,0,1,0,0
F2024_11,stimuli/tones/PercTri-30dB.wav,2,115,space,1.9936,B_3,stimuli/Baron6dB/070002.wav,stimuli/Charlie/000003.wav,stimuli/Hopper/030100.wav,NA,1,-30dB,PercTri,B_3,1,1,0,0,0
F2024_11,stimuli/tones/silence.wav,0.75,116,space,2.159,B_1,stimuli/Baron6dB/070000.wav,stimuli/Ringo/010001.wav,stimuli/Ringo/010300.wav,NA,0,silence,silence,B_1,1,0,0,0,1
F2024_11,stimuli/tones/silence.wav,0.75,117,noResp,NA,W_1,stimuli/Baron6dB/070100.wav,stimuli/Charlie/000200.wav,stimuli/Tiger/050103.wav,NA,1,silence,silence,R_1,0,0,0,1,0
F2024_11,stimuli/tones/silence.wav,2,118,noResp,NA,W_3,stimuli/Baron6dB/070202.wav,stimuli/Laker/020103.wav,stimuli/Hopper/030303.wav,NA,1,silence,silence,W_3,1,0,0,1,0
F2024_11,stimuli/tones/silence.wav,2,119,noResp,NA,G_4,stimuli/Baron6dB/070303.wav,stimuli/Hopper/030303.wav,stimuli/Tiger/050300.wav,NA,1,silence,silence,G_4,1,0,0,1,0
F2024_11,stimuli/tones/PercTri-33dB.wav,0.75,120,space,1.1746,B_4,stimuli/Baron6dB/070003.wav,stimuli/Tiger/050102.wav,stimuli/Laker/020100.wav,NA,1,-33dB,PercTri,B_4,1,1,0,0,0
F2024_11,stimuli/tones/silence.wav,1.25,121,noResp,NA,W_3,stimuli/Baron6dB/070300.wav,stimuli/Charlie/000203.wav,stimuli/Tiger/050000.wav,NA,1,silence,silence,G_1,0,0,0,1,0
F2024_11,stimuli/tones/PercTri-33dB.wav,2,122,noResp,NA,W_1,stimuli/Baron6dB/070200.wav,stimuli/Tiger/050303.wav,stimuli/Hopper/030103.wav,NA,0,-33dB,PercTri,W_1,1,0,1,0,0
F2024_11,stimuli/tones/silence.wav,2,123,noResp,NA,B_2,stimuli/Baron6dB/070001.wav,stimuli/Laker/020302.wav,stimuli/Hopper/030300.wav,NA,1,silence,silence,B_2,1,0,0,1,0
F2024_11,stimuli/tones/silence.wav,2,124,noResp,NA,W_2,stimuli/Baron6dB/070201.wav,stimuli/Ringo/010202.wav,stimuli/Eagle/060202.wav,NA,1,silence,silence,W_2,1,0,0,1,0
F2024_11,stimuli/tones/FlatIEC-33dB.wav,2,125,noResp,NA,G_3,stimuli/Baron6dB/070302.wav,stimuli/Hopper/030203.wav,stimuli/Charlie/000203.wav,NA,0,-33dB,Flat,G_3,1,0,1,0,0
F2024_11,stimuli/tones/silence.wav,0.75,126,noResp,NA,R_3,stimuli/Baron6dB/070102.wav,stimuli/Hopper/030302.wav,stimuli/Eagle/060103.wav,NA,1,silence,silence,R_3,1,0,0,1,0
F2024_11,stimuli/tones/FlatIEC-21dB.wav,1.25,127,space,2.2595,G_2,stimuli/Baron6dB/070301.wav,stimuli/Ringo/010102.wav,stimuli/Laker/020000.wav,NA,1,-21dB,Flat,G_2,1,1,0,0,0
F2024_11,stimuli/tones/silence.wav,0.75,128,noResp,NA,R_2,stimuli/Baron6dB/070101.wav,stimuli/Tiger/050201.wav,stimuli/Ringo/010200.wav,NA,1,silence,silence,R_2,1,0,0,1,0
F2024_11,stimuli/tones/PercTri-18dB.wav,1.25,129,space,2.0095,G_4,stimuli/Baron6dB/070303.wav,stimuli/Charlie/000202.wav,stimuli/Tiger/050001.wav,NA,1,-18dB,PercTri,G_4,1,1,0,0,0
F2024_11,stimuli/tones/silence.wav,1.25,130,noResp,NA,B_3,stimuli/Baron6dB/070002.wav,stimuli/Laker/020200.wav,stimuli/Laker/020302.wav,NA,1,silence,silence,B_3,1,0,0,1,0
F2024_11,stimuli/tones/silence.wav,2,131,noResp,NA,W_1,stimuli/Baron6dB/070100.wav,stimuli/Eagle/060301.wav,stimuli/Hopper/030201.wav,NA,1,silence,silence,R_1,0,0,0,1,0
F2024_11,stimuli/tones/silence.wav,0.75,132,noResp,NA,B_1,stimuli/Baron6dB/070000.wav,stimuli/Eagle/060000.wav,stimuli/Ringo/010000.wav,NA,1,silence,silence,B_1,1,0,0,1,0
F2024_11,stimuli/tones/FlatIEC-21dB.wav,1.25,133,space,2.1771,B_2,stimuli/Baron6dB/070001.wav,stimuli/Arrow/040003.wav,stimuli/Tiger/050002.wav,NA,1,-21dB,Flat,B_2,1,1,0,0,0
F2024_11,stimuli/tones/silence.wav,2,134,noResp,NA,W_4,stimuli/Baron6dB/070203.wav,stimuli/Arrow/040002.wav,stimuli/Charlie/000200.wav,NA,1,silence,silence,W_4,1,0,0,1,0
F2024_11,stimuli/tones/silence.wav,2,135,noResp,NA,W_1,stimuli/Baron6dB/070200.wav,stimuli/Ringo/010100.wav,stimuli/Charlie/000301.wav,NA,1,silence,silence,W_1,1,0,0,1,0
F2024_11,stimuli/tones/FlatIEC-24dB.wav,2,136,space,2.6762,G_4,stimuli/Baron6dB/070103.wav,stimuli/Ringo/010301.wav,stimuli/Laker/020003.wav,NA,1,-24dB,Flat,R_4,0,1,0,0,0
F2024_11,stimuli/tones/PercTri-27dB.wav,0.75,137,space,1.2757,G_1,stimuli/Baron6dB/070300.wav,stimuli/Ringo/010200.wav,stimuli/Laker/020200.wav,NA,1,-27dB,PercTri,G_1,1,1,0,0,0
F2024_11,stimuli/tones/silence.wav,0.75,138,noResp,NA,R_3,stimuli/Baron6dB/070102.wav,stimuli/Laker/020000.wav,stimuli/Charlie/000201.wav,NA,1,silence,silence,R_3,1,0,0,1,0
F2024_11,stimuli/tones/PercTri-24dB.wav,0.75,139,space,1.5329,G_4,stimuli/Baron6dB/070003.wav,stimuli/Charlie/000101.wav,stimuli/Laker/020102.wav,NA,1,-24dB,PercTri,B_4,0,1,0,0,0
F2024_11,stimuli/tones/silence.wav,1.25,140,noResp,NA,G_2,stimuli/Baron6dB/070301.wav,stimuli/Ringo/010003.wav,stimuli/Eagle/060100.wav,NA,1,silence,silence,G_2,1,0,0,1,0
F2024_11,stimuli/tones/FlatIEC-30dB.wav,0.75,141,noResp,NA,W_3,stimuli/Baron6dB/070202.wav,stimuli/Laker/020303.wav,stimuli/Tiger/050201.wav,NA,0,-30dB,Flat,W_3,1,0,1,0,0
F2024_11,stimuli/tones/silence.wav,1.25,142,noResp,NA,G_3,stimuli/Baron6dB/070302.wav,stimuli/Hopper/030000.wav,stimuli/Tiger/050200.wav,NA,1,silence,silence,G_3,1,0,0,1,0
F2024_11,stimuli/tones/FlatIEC-24dB.wav,0.75,143,noResp,NA,W_2,stimuli/Baron6dB/070201.wav,stimuli/Ringo/010303.wav,stimuli/Tiger/050302.wav,NA,0,-24dB,Flat,W_2,1,0,1,0,0
F2024_11,stimuli/tones/PercTri-24dB.wav,1.25,144,space,1.9099,B_4,stimuli/Baron6dB/070003.wav,stimuli/Tiger/050202.wav,stimuli/Arrow/040202.wav,NA,1,-24dB,PercTri,B_4,1,1,0,0,0
F2024_11,stimuli/tones/PercTri-21dB.wav,2,145,noResp,NA,W_4,stimuli/Baron6dB/070103.wav,stimuli/Hopper/030101.wav,stimuli/Charlie/000202.wav,NA,0,-21dB,PercTri,R_4,0,0,1,0,0
F2024_11,stimuli/tones/silence.wav,1.25,146,noResp,NA,B_2,stimuli/Baron6dB/070001.wav,stimuli/Hopper/030102.wav,stimuli/Charlie/000102.wav,NA,1,silence,silence,B_2,1,0,0,1,0
F2024_11,stimuli/tones/PercTri-30dB.wav,1.25,147,noResp,NA,W_4,stimuli/Baron6dB/070203.wav,stimuli/Hopper/030002.wav,stimuli/Arrow/040201.wav,NA,0,-30dB,PercTri,W_4,1,0,1,0,0
F2024_11,stimuli/tones/silence.wav,2,148,noResp,NA,W_1,stimuli/Baron6dB/070200.wav,stimuli/Hopper/030003.wav,stimuli/Arrow/040200.wav,NA,1,silence,silence,W_1,1,0,0,1,0
