participant,tone,tone_onset,loop.thisN,key_resp_5.keys,key_resp_5.rt,mouseClick_5.clicked_name,thisA,thisB,thisC,typePrompt,cor,snr,env,CRMcorrect,CRMhit,hit,miss,cr,fa
115,stimuli/tones/silence.wav,2,0,noResp,NA,R_2,stimuli/Baron6dB/070101.wav,stimuli/Hopper/030101.wav,stimuli/Hopper/030202.wav,NA,1,silence,silence,R_2,1,0,0,1,0
115,stimuli/tones/FlatIEC-24dB.wav,0.75,1,noResp,NA,G_4,stimuli/Baron6dB/070303.wav,stimuli/Tiger/050102.wav,stimuli/Ringo/010302.wav,NA,0,-24dB,Flat,G_4,1,0,1,0,0
115,stimuli/tones/PercTri-21dB.wav,0.75,2,space,1.36,W_2,stimuli/Baron6dB/070201.wav,stimuli/Tiger/050301.wav,stimuli/Hopper/030002.wav,NA,1,-21dB,PercTri,W_2,1,1,0,0,0
115,stimuli/tones/silence.wav,0.75,3,noResp,NA,B_3,stimuli/Baron6dB/070002.wav,stimuli/Arrow/040001.wav,stimuli/Tiger/050300.wav,NA,1,silence,silence,B_3,1,0,0,1,0
115,stimuli/tones/silence.wav,2,4,noResp,NA,B_2,stimuli/Baron6dB/070001.wav,stimuli/Ringo/010301.wav,stimuli/Charlie/000203.wav,NA,1,silence,silence,B_2,1,0,0,1,0
115,stimuli/tones/FlatIEC-24dB.wav,2,5,space,2.8159,B_4,stimuli/Baron6dB/070003.wav,stimuli/Tiger/050303.wav,stimuli/Ringo/010101.wav,NA,1,-24dB,Flat,B_4,1,1,0,0,0
115,stimuli/tones/PercTri-27dB.wav,1.25,6,space,1.8924,B_4,stimuli/Baron6dB/070203.wav,stimuli/Ringo/010102.wav,stimuli/Ringo/010202.wav,NA,1,-27dB,PercTri,W_4,0,1,0,0,0
115,stimuli/tones/FlatIEC-21dB.wav,2,7,space,2.7602,G_3,stimuli/Baron6dB/070302.wav,stimuli/Eagle/060102.wav,stimuli/Charlie/000102.wav,NA,1,-21dB,Flat,G_3,1,1,0,0,0
115,stimuli/tones/silence.wav,1.25,8,noResp,NA,R_3,stimuli/Baron6dB/070102.wav,stimuli/Charlie/000100.wav,stimuli/Hopper/030201.wav,NA,1,silence,silence,R_3,1,0,0,1,0
115,stimuli/tones/silence.wav,0.75,9,noResp,NA,B_1,stimuli/Baron6dB/070000.wav,stimuli/Tiger/050302.wav,stimuli/Arrow/040300.wav,NA,1,silence,silence,B_1,1,0,0,1,0
115,stimuli/tones/PercTri-30dB.wav,0.75,10,space,1.3438,G_2,stimuli/Baron6dB/070301.wav,stimuli/Ringo/010200.wav,stimuli/Arrow/040201.wav,NA,1,-30dB,PercTri,G_2,1,1,0,0,0
115,stimuli/tones/FlatIEC-21dB.wav,2,11,space,2.8504,W_3,stimuli/Baron6dB/070202.wav,stimuli/Ringo/010101.wav,stimuli/Eagle/060200.wav,NA,1,-21dB,Flat,W_3,1,1,0,0,0
115,stimuli/tones/PercTri-21dB.wav,1.25,12,space,1.7543,G_1,stimuli/Baron6dB/070300.wav,stimuli/Laker/020301.wav,stimuli/Laker/020000.wav,NA,1,-21dB,PercTri,G_1,1,1,0,0,0
115,stimuli/tones/silence.wav,1.25,13,noResp,NA,W_1,stimuli/Baron6dB/070200.wav,stimuli/Arrow/040100.wav,stimuli/Arrow/040003.wav,NA,1,silence,silence,W_1,1,0,0,1,0
115,stimuli/tones/PercTri-18dB.wav,1.25,14,space,1.6512,R_4,stimuli/Baron6dB/070103.wav,stimuli/Arrow/040203.wav,stimuli/Arrow/040301.wav,NA,1,-18dB,PercTri,R_4,1,1,0,0,0
115,stimuli/tones/silence.wav,0.75,15,noResp,NA,R_1,stimuli/Baron6dB/070100.wav,stimuli/Arrow/040103.wav,stimuli/Hopper/030300.wav,NA,1,silence,silence,R_1,1,0,0,1,0
115,stimuli/tones/silence.wav,0.75,16,noResp,NA,G_1,stimuli/Baron6dB/070300.wav,stimuli/Ringo/010203.wav,stimuli/Eagle/060101.wav,NA,1,silence,silence,G_1,1,0,0,1,0
115,stimuli/tones/PercTri-33dB.wav,2,17,space,2.484,R_2,stimuli/Baron6dB/070101.wav,stimuli/Arrow/040102.wav,stimuli/Charlie/000303.wav,NA,1,-33dB,PercTri,R_2,1,1,0,0,0
115,stimuli/tones/silence.wav,0.75,18,noResp,NA,W_2,stimuli/Baron6dB/070201.wav,stimuli/Laker/020001.wav,stimuli/Charlie/000200.wav,NA,1,silence,silence,W_2,1,0,0,1,0
115,stimuli/tones/silence.wav,0.75,19,noResp,NA,R_4,stimuli/Baron6dB/070103.wav,stimuli/Laker/020101.wav,stimuli/Laker/020100.wav,NA,1,silence,silence,R_4,1,0,0,1,0
115,stimuli/tones/FlatIEC-33dB.wav,2,20,space,2.7647,R_1,stimuli/Baron6dB/070100.wav,stimuli/Arrow/040300.wav,stimuli/Arrow/040302.wav,NA,1,-33dB,Flat,R_1,1,1,0,0,0
115,stimuli/tones/silence.wav,0.75,21,noResp,NA,G_4,stimuli/Baron6dB/070303.wav,stimuli/Hopper/030201.wav,stimuli/Charlie/000201.wav,NA,1,silence,silence,G_4,1,0,0,1,0
115,stimuli/tones/FlatIEC-18dB.wav,1.25,22,space,2.9095,W_4,stimuli/Baron6dB/070203.wav,stimuli/Ringo/010300.wav,stimuli/Hopper/030203.wav,NA,1,-18dB,Flat,W_4,1,1,0,0,0
115,stimuli/tones/silence.wav,2,23,noResp,NA,B_2,stimuli/Baron6dB/070001.wav,stimuli/Eagle/060301.wav,stimuli/Ringo/010201.wav,NA,1,silence,silence,B_2,1,0,0,1,0
115,stimuli/tones/PercTri-24dB.wav,2,24,space,2.498,B_3,stimuli/Baron6dB/070002.wav,stimuli/Charlie/000103.wav,stimuli/Eagle/060002.wav,NA,1,-24dB,PercTri,B_3,1,1,0,0,0
115,stimuli/tones/silence.wav,1.25,25,noResp,NA,G_3,stimuli/Baron6dB/070302.wav,stimuli/Laker/020303.wav,stimuli/Arrow/040200.wav,NA,1,silence,silence,G_3,1,0,0,1,0
115,stimuli/tones/silence.wav,1.25,26,noResp,NA,W_3,stimuli/Baron6dB/070202.wav,stimuli/Hopper/030002.wav,stimuli/Arrow/040101.wav,NA,1,silence,silence,W_3,1,0,0,1,0
115,stimuli/tones/PercTri-24dB.wav,0.75,27,space,1.3594,B_4,stimuli/Baron6dB/070003.wav,stimuli/Hopper/030000.wav,stimuli/Laker/020201.wav,NA,1,-24dB,PercTri,B_4,1,1,0,0,0
115,stimuli/tones/PercTri-18dB.wav,1.25,28,space,1.8998,W_1,stimuli/Baron6dB/070200.wav,stimuli/Charlie/000003.wav,stimuli/Eagle/060103.wav,NA,1,-18dB,PercTri,W_1,1,1,0,0,0
115,stimuli/tones/FlatIEC-21dB.wav,1.25,29,space,2.466,B_1,stimuli/Baron6dB/070000.wav,stimuli/Eagle/060201.wav,stimuli/Hopper/030101.wav,NA,1,-21dB,Flat,B_1,1,1,0,0,0
115,stimuli/tones/silence.wav,0.75,30,noResp,NA,G_2,stimuli/Baron6dB/070301.wav,stimuli/Arrow/040101.wav,stimuli/Eagle/060301.wav,NA,1,silence,silence,G_2,1,0,0,1,0
115,stimuli/tones/PercTri-18dB.wav,2,31,space,2.4424,R_3,stimuli/Baron6dB/070102.wav,stimuli/Charlie/000101.wav,stimuli/Hopper/030200.wav,NA,1,-18dB,PercTri,R_3,1,1,0,0,0
115,stimuli/tones/FlatIEC-30dB.wav,1.25,32,space,3.2419,G_3,stimuli/Baron6dB/070302.wav,stimuli/Ringo/010103.wav,stimuli/Eagle/060001.wav,NA,1,-30dB,Flat,G_3,1,1,0,0,0
115,stimuli/tones/silence.wav,0.75,33,noResp,NA,R_3,stimuli/Baron6dB/070103.wav,stimuli/Hopper/030103.wav,stimuli/Charlie/000101.wav,NA,1,silence,silence,R_4,0,0,0,1,0
115,stimuli/tones/silence.wav,2,34,noResp,NA,G_1,stimuli/Baron6dB/070300.wav,stimuli/Eagle/060001.wav,stimuli/Ringo/010000.wav,NA,1,silence,silence,G_1,1,0,0,1,0
115,stimuli/tones/silence.wav,2,35,noResp,NA,G_2,stimuli/Baron6dB/070301.wav,stimuli/Arrow/040002.wav,stimuli/Arrow/040100.wav,NA,1,silence,silence,G_2,1,0,0,1,0
115,stimuli/tones/silence.wav,2,36,noResp,NA,B_4,stimuli/Baron6dB/070003.wav,stimuli/Charlie/000102.wav,stimuli/Tiger/050203.wav,NA,1,silence,silence,B_4,1,0,0,1,0
115,stimuli/tones/silence.wav,2,37,noResp,NA,W_1,stimuli/Baron6dB/070200.wav,stimuli/Arrow/040200.wav,stimuli/Ringo/010100.wav,NA,1,silence,silence,W_1,1,0,0,1,0
115,stimuli/tones/silence.wav,1.25,38,noResp,NA,B_3,stimuli/Baron6dB/070002.wav,stimuli/Hopper/030303.wav,stimuli/Charlie/000103.wav,NA,1,silence,silence,B_3,1,0,0,1,0
115,stimuli/tones/PercTri-33dB.wav,2,39,space,2.5661,W_3,stimuli/Baron6dB/070202.wav,stimuli/Eagle/060302.wav,stimuli/Charlie/000300.wav,NA,1,-33dB,PercTri,W_3,1,1,0,0,0
115,stimuli/tones/FlatIEC-33dB.wav,1.25,40,noResp,NA,R_3,stimuli/Baron6dB/070102.wav,stimuli/Tiger/050201.wav,stimuli/Laker/020102.wav,NA,0,-33dB,Flat,R_3,1,0,1,0,0
115,stimuli/tones/FlatIEC-33dB.wav,1.25,41,noResp,NA,G_4,stimuli/Baron6dB/070303.wav,stimuli/Charlie/000002.wav,stimuli/Tiger/050101.wav,NA,0,-33dB,Flat,G_4,1,0,1,0,0
115,stimuli/tones/FlatIEC-27dB.wav,1.25,42,space,2.5426,B_1,stimuli/Baron6dB/070000.wav,stimuli/Tiger/050100.wav,stimuli/Eagle/060201.wav,NA,1,-27dB,Flat,B_1,1,1,0,0,0
115,stimuli/tones/PercTri-24dB.wav,1.25,43,space,1.7609,R_2,stimuli/Baron6dB/070101.wav,stimuli/Arrow/040000.wav,stimuli/Arrow/040202.wav,NA,1,-24dB,PercTri,R_2,1,1,0,0,0
115,stimuli/tones/silence.wav,2,44,noResp,NA,R_1,stimuli/Baron6dB/070100.wav,stimuli/Arrow/040201.wav,stimuli/Arrow/040103.wav,NA,1,silence,silence,R_1,1,0,0,1,0
115,stimuli/tones/silence.wav,1.25,45,noResp,NA,W_2,stimuli/Baron6dB/070201.wav,stimuli/Hopper/030202.wav,stimuli/Tiger/050003.wav,NA,1,silence,silence,W_2,1,0,0,1,0
115,stimuli/tones/silence.wav,0.75,46,noResp,NA,W_4,stimuli/Baron6dB/070203.wav,stimuli/Tiger/050003.wav,stimuli/Eagle/060203.wav,NA,1,silence,silence,W_4,1,0,0,1,0
115,stimuli/tones/PercTri-30dB.wav,1.25,47,space,1.9915,B_2,stimuli/Baron6dB/070001.wav,stimuli/Ringo/010303.wav,stimuli/Ringo/010203.wav,NA,1,-30dB,PercTri,B_2,1,1,0,0,0
115,stimuli/tones/silence.wav,2,48,noResp,NA,B_1,stimuli/Baron6dB/070000.wav,stimuli/Ringo/010100.wav,stimuli/Ringo/010002.wav,NA,1,silence,silence,B_1,1,0,0,1,0
115,stimuli/tones/FlatIEC-18dB.wav,0.75,49,space,1.2255,W_2,stimuli/Baron6dB/070201.wav,stimuli/Eagle/060003.wav,stimuli/Charlie/000001.wav,NA,1,-18dB,Flat,W_2,1,1,0,0,0
115,stimuli/tones/silence.wav,2,50,noResp,NA,G_1,stimuli/Baron6dB/070300.wav,stimuli/Ringo/010302.wav,stimuli/Charlie/000202.wav,NA,1,silence,silence,G_1,1,0,0,1,0
115,stimuli/tones/silence.wav,1.25,51,noResp,NA,B_2,stimuli/Baron6dB/070001.wav,stimuli/Laker/020100.wav,stimuli/Charlie/000000.wav,NA,1,silence,silence,B_2,1,0,0,1,0
115,stimuli/tones/FlatIEC-30dB.wav,0.75,52,noResp,NA,W_3,stimuli/Baron6dB/070202.wav,stimuli/Ringo/010000.wav,stimuli/Laker/020003.wav,NA,0,-30dB,Flat,W_3,1,0,1,0,0
115,stimuli/tones/PercTri-24dB.wav,1.25,53,space,1.5918,R_3,stimuli/Baron6dB/070302.wav,stimuli/Tiger/050101.wav,stimuli/Ringo/010102.wav,NA,1,-24dB,PercTri,G_3,0,1,0,0,0
115,stimuli/tones/silence.wav,0.75,54,noResp,NA,W_4,stimuli/Baron6dB/070203.wav,stimuli/Eagle/060000.wav,stimuli/Laker/020303.wav,NA,1,silence,silence,W_4,1,0,0,1,0
115,stimuli/tones/PercTri-18dB.wav,0.75,55,space,1.2924,W_4,stimuli/Baron6dB/070103.wav,stimuli/Charlie/000201.wav,stimuli/Charlie/000301.wav,NA,1,-18dB,PercTri,R_4,0,1,0,0,0
115,stimuli/tones/FlatIEC-27dB.wav,0.75,56,noResp,NA,R_3,stimuli/Baron6dB/070102.wav,stimuli/Laker/020200.wav,stimuli/Hopper/030003.wav,NA,0,-27dB,Flat,R_3,1,0,1,0,0
115,stimuli/tones/silence.wav,2,57,noResp,NA,R_4,stimuli/Baron6dB/070303.wav,stimuli/Eagle/060303.wav,stimuli/Charlie/000302.wav,NA,1,silence,silence,G_4,0,0,0,1,0
115,stimuli/tones/silence.wav,0.75,58,noResp,NA,G_2,stimuli/Baron6dB/070301.wav,stimuli/Laker/020000.wav,stimuli/Hopper/030303.wav,NA,1,silence,silence,G_2,1,0,0,1,0
115,stimuli/tones/PercTri-21dB.wav,0.75,59,space,1.2169,R_1,stimuli/Baron6dB/070100.wav,stimuli/Tiger/050202.wav,stimuli/Eagle/060100.wav,NA,1,-21dB,PercTri,R_1,1,1,0,0,0
115,stimuli/tones/silence.wav,2,60,noResp,NA,W_1,stimuli/Baron6dB/070200.wav,stimuli/Eagle/060300.wav,stimuli/Laker/020202.wav,NA,1,silence,silence,W_1,1,0,0,1,0
115,stimuli/tones/FlatIEC-33dB.wav,1.25,61,space,2.7856,R_2,stimuli/Baron6dB/070101.wav,stimuli/Eagle/060203.wav,stimuli/Arrow/040002.wav,NA,1,-33dB,Flat,R_2,1,1,0,0,0
115,stimuli/tones/FlatIEC-24dB.wav,1.25,62,space,1.9667,R_3,stimuli/Baron6dB/070002.wav,stimuli/Hopper/030100.wav,stimuli/Charlie/000002.wav,NA,1,-24dB,Flat,B_3,0,1,0,0,0
115,stimuli/tones/PercTri-30dB.wav,0.75,63,space,1.2758,B_4,stimuli/Baron6dB/070003.wav,stimuli/Laker/020302.wav,stimuli/Tiger/050302.wav,NA,1,-30dB,PercTri,B_4,1,1,0,0,0
115,stimuli/tones/silence.wav,2,64,noResp,NA,R_3,stimuli/Baron6dB/070102.wav,stimuli/Hopper/030102.wav,stimuli/Arrow/040001.wav,NA,1,silence,silence,R_3,1,0,0,1,0
115,stimuli/tones/FlatIEC-27dB.wav,0.75,65,space,1.4354,B_2,stimuli/Baron6dB/070001.wav,stimuli/Arrow/040302.wav,stimuli/Eagle/060302.wav,NA,1,-27dB,Flat,B_2,1,1,0,0,0
115,stimuli/tones/PercTri-30dB.wav,2,66,space,2.6327,B_3,stimuli/Baron6dB/070002.wav,stimuli/Arrow/040303.wav,stimuli/Tiger/050303.wav,NA,1,-30dB,PercTri,B_3,1,1,0,0,0
115,stimuli/tones/PercTri-27dB.wav,0.75,67,space,2.2938,R_1,stimuli/Baron6dB/070100.wav,stimuli/Laker/020102.wav,stimuli/Eagle/060003.wav,NA,1,-27dB,PercTri,R_1,1,1,0,0,0
115,stimuli/tones/silence.wav,1.25,68,noResp,NA,R_4,stimuli/Baron6dB/070103.wav,stimuli/Hopper/030001.wav,stimuli/Arrow/040000.wav,NA,1,silence,silence,R_4,1,0,0,1,0
115,stimuli/tones/silence.wav,0.75,69,noResp,NA,W_4,stimuli/Baron6dB/070203.wav,stimuli/Tiger/050000.wav,stimuli/Ringo/010300.wav,NA,1,silence,silence,W_4,1,0,0,1,0
115,stimuli/tones/silence.wav,2,70,noResp,NA,W_1,stimuli/Baron6dB/070200.wav,stimuli/Laker/020202.wav,stimuli/Laker/020300.wav,NA,1,silence,silence,W_1,1,0,0,1,0
115,stimuli/tones/PercTri-27dB.wav,0.75,71,space,1.3592,W_2,stimuli/Baron6dB/070201.wav,stimuli/Eagle/060202.wav,stimuli/Tiger/050102.wav,NA,1,-27dB,PercTri,W_2,1,1,0,0,0
115,stimuli/tones/silence.wav,0.75,72,noResp,NA,G_2,stimuli/Baron6dB/070301.wav,stimuli/Hopper/030301.wav,stimuli/Hopper/030000.wav,NA,1,silence,silence,G_2,1,0,0,1,0
115,stimuli/tones/silence.wav,1.25,73,noResp,NA,G_3,stimuli/Baron6dB/070302.wav,stimuli/Charlie/000000.wav,stimuli/Laker/020002.wav,NA,1,silence,silence,G_3,1,0,0,1,0
115,stimuli/tones/silence.wav,2,74,noResp,NA,B_1,stimuli/Baron6dB/070000.wav,stimuli/Ringo/010001.wav,stimuli/Laker/020301.wav,NA,1,silence,silence,B_1,1,0,0,1,0
115,stimuli/tones/silence.wav,0.75,75,noResp,NA,G_1,stimuli/Baron6dB/070300.wav,stimuli/Ringo/010003.wav,stimuli/Ringo/010003.wav,NA,1,silence,silence,G_1,1,0,0,1,0
115,stimuli/tones/FlatIEC-27dB.wav,2,76,space,2.7505,B_4,stimuli/Baron6dB/070003.wav,stimuli/Ringo/010201.wav,stimuli/Ringo/010103.wav,NA,1,-27dB,Flat,B_4,1,1,0,0,0
115,stimuli/tones/silence.wav,0.75,77,noResp,NA,R_2,stimuli/Baron6dB/070101.wav,stimuli/Eagle/060002.wav,stimuli/Laker/020001.wav,NA,1,silence,silence,R_2,1,0,0,1,0
115,stimuli/tones/PercTri-33dB.wav,1.25,78,space,1.8331,W_3,stimuli/Baron6dB/070202.wav,stimuli/Charlie/000300.wav,stimuli/Arrow/040102.wav,NA,1,-33dB,PercTri,W_3,1,1,0,0,0
115,stimuli/tones/silence.wav,0.75,79,noResp,NA,G_4,stimuli/Baron6dB/070303.wav,stimuli/Arrow/040003.wav,stimuli/Hopper/030102.wav,NA,1,silence,silence,G_4,1,0,0,1,0
115,stimuli/tones/silence.wav,1.25,80,noResp,NA,G_4,stimuli/Baron6dB/070303.wav,stimuli/Tiger/050103.wav,stimuli/Hopper/030100.wav,NA,1,silence,silence,G_4,1,0,0,1,0
115,stimuli/tones/silence.wav,0.75,81,noResp,NA,G_1,stimuli/Baron6dB/070300.wav,stimuli/Tiger/050001.wav,stimuli/Eagle/060102.wav,NA,1,silence,silence,G_1,1,0,0,1,0
115,stimuli/tones/FlatIEC-18dB.wav,2,82,space,2.6992,W_2,stimuli/Baron6dB/070201.wav,stimuli/Eagle/060101.wav,stimuli/Laker/020101.wav,NA,1,-18dB,Flat,W_2,1,1,0,0,0
115,stimuli/tones/silence.wav,1.25,83,noResp,NA,R_3,stimuli/Baron6dB/070102.wav,stimuli/Laker/020201.wav,stimuli/Ringo/010303.wav,NA,1,silence,silence,R_3,1,0,0,1,0
115,stimuli/tones/silence.wav,0.75,84,noResp,NA,R_1,stimuli/Baron6dB/070100.wav,stimuli/Eagle/060200.wav,stimuli/Laker/020203.wav,NA,1,silence,silence,R_1,1,0,0,1,0
115,stimuli/tones/silence.wav,1.25,85,noResp,NA,B_2,stimuli/Baron6dB/070001.wav,stimuli/Eagle/060100.wav,stimuli/Laker/020302.wav,NA,1,silence,silence,B_2,1,0,0,1,0
115,stimuli/tones/silence.wav,2,86,noResp,NA,W_4,stimuli/Baron6dB/070203.wav,stimuli/Arrow/040301.wav,stimuli/Tiger/050201.wav,NA,1,silence,silence,W_4,1,0,0,1,0
115,stimuli/tones/FlatIEC-30dB.wav,0.75,87,space,1.4166,R_2,stimuli/Baron6dB/070101.wav,stimuli/Charlie/000001.wav,stimuli/Eagle/060000.wav,NA,1,-30dB,Flat,R_2,1,1,0,0,0
115,stimuli/tones/silence.wav,0.75,88,noResp,NA,B_1,stimuli/Baron6dB/070000.wav,stimuli/Charlie/000303.wav,stimuli/Arrow/040303.wav,NA,1,silence,silence,B_1,1,0,0,1,0
115,stimuli/tones/FlatIEC-21dB.wav,0.75,89,noResp,NA,W_3,stimuli/Baron6dB/070202.wav,stimuli/Laker/020103.wav,stimuli/Hopper/030103.wav,NA,0,-21dB,Flat,W_3,1,0,1,0,0
115,stimuli/tones/silence.wav,1.25,90,noResp,NA,W_1,stimuli/Baron6dB/070200.wav,stimuli/Laker/020203.wav,stimuli/Tiger/050200.wav,NA,1,silence,silence,W_1,1,0,0,1,0
115,stimuli/tones/silence.wav,2,91,noResp,NA,B_4,stimuli/Baron6dB/070003.wav,stimuli/Laker/020300.wav,stimuli/Ringo/010200.wav,NA,1,silence,silence,B_4,1,0,0,1,0
115,stimuli/tones/FlatIEC-33dB.wav,2,92,space,1.2287,G_2,stimuli/Baron6dB/070301.wav,stimuli/Tiger/050300.wav,stimuli/Tiger/050000.wav,NA,1,-33dB,Flat,G_2,1,1,0,0,0
115,stimuli/tones/silence.wav,0.75,93,noResp,NA,B_3,stimuli/Baron6dB/070002.wav,stimuli/Hopper/030300.wav,stimuli/Hopper/030001.wav,NA,1,silence,silence,B_3,1,0,0,1,0
115,stimuli/tones/silence.wav,1.25,94,noResp,NA,G_3,stimuli/Baron6dB/070302.wav,stimuli/Ringo/010002.wav,stimuli/Tiger/050301.wav,NA,1,silence,silence,G_3,1,0,0,1,0
115,stimuli/tones/PercTri-21dB.wav,1.25,95,space,2.0152,R_4,stimuli/Baron6dB/070103.wav,stimuli/Arrow/040202.wav,stimuli/Tiger/050002.wav,NA,1,-21dB,PercTri,R_4,1,1,0,0,0
115,stimuli/tones/silence.wav,1.25,96,noResp,NA,B_1,stimuli/Baron6dB/070000.wav,stimuli/Charlie/000202.wav,stimuli/Ringo/010001.wav,NA,1,silence,silence,B_1,1,0,0,1,0
115,stimuli/tones/silence.wav,1.25,97,noResp,NA,W_4,stimuli/Baron6dB/070203.wav,stimuli/Tiger/050200.wav,stimuli/Eagle/060300.wav,NA,1,silence,silence,W_4,1,0,0,1,0
115,stimuli/tones/PercTri-18dB.wav,0.75,98,space,1.2102,R_1,stimuli/Baron6dB/070100.wav,stimuli/Tiger/050203.wav,stimuli/Tiger/050202.wav,NA,1,-18dB,PercTri,R_1,1,1,0,0,0
115,stimuli/tones/silence.wav,2,99,noResp,NA,W_2,stimuli/Baron6dB/070201.wav,stimuli/Laker/020002.wav,stimuli/Eagle/060303.wav,NA,1,silence,silence,W_2,1,0,0,1,0
115,stimuli/tones/silence.wav,1.25,100,noResp,NA,G_3,stimuli/Baron6dB/070302.wav,stimuli/Charlie/000301.wav,stimuli/Arrow/040203.wav,NA,1,silence,silence,G_3,1,0,0,1,0
115,stimuli/tones/PercTri-21dB.wav,2,101,space,2.5771,B_4,stimuli/Baron6dB/070003.wav,stimuli/Hopper/030200.wav,stimuli/Charlie/000100.wav,NA,1,-21dB,PercTri,B_4,1,1,0,0,0
115,stimuli/tones/silence.wav,2,102,noResp,NA,B_2,stimuli/Baron6dB/070001.wav,stimuli/Charlie/000302.wav,stimuli/Charlie/000003.wav,NA,1,silence,silence,B_2,1,0,0,1,0
115,stimuli/tones/PercTri-18dB.wav,0.75,103,space,1.3424,G_4,stimuli/Baron6dB/070303.wav,stimuli/Hopper/030203.wav,stimuli/Tiger/050100.wav,NA,1,-18dB,PercTri,G_4,1,1,0,0,0
115,stimuli/tones/silence.wav,2,104,noResp,NA,W_1,stimuli/Baron6dB/070200.wav,stimuli/Charlie/000203.wav,stimuli/Laker/020200.wav,NA,1,silence,silence,W_1,1,0,0,1,0
115,stimuli/tones/FlatIEC-18dB.wav,2,105,space,2.9505,B_3,stimuli/Baron6dB/070002.wav,stimuli/Hopper/030302.wav,stimuli/Eagle/060202.wav,NA,1,-18dB,Flat,B_3,1,1,0,0,0
115,stimuli/tones/silence.wav,0.75,106,noResp,NA,G_2,stimuli/Baron6dB/070301.wav,stimuli/Tiger/050002.wav,stimuli/Hopper/030301.wav,NA,1,silence,silence,G_2,1,0,0,1,0
115,stimuli/tones/PercTri-21dB.wav,2,107,space,2.4848,R_4,stimuli/Baron6dB/070103.wav,stimuli/Ringo/010202.wav,stimuli/Ringo/010301.wav,NA,1,-21dB,PercTri,R_4,1,1,0,0,0
115,stimuli/tones/silence.wav,0.75,108,noResp,NA,R_2,stimuli/Baron6dB/070101.wav,stimuli/Charlie/000200.wav,stimuli/Laker/020103.wav,NA,1,silence,silence,R_2,1,0,0,1,0
115,stimuli/tones/silence.wav,2,109,noResp,NA,G_1,stimuli/Baron6dB/070300.wav,stimuli/Laker/020003.wav,stimuli/Tiger/050001.wav,NA,1,silence,silence,G_1,1,0,0,1,0
115,stimuli/tones/FlatIEC-24dB.wav,0.75,110,space,1.3332,W_3,stimuli/Baron6dB/070202.wav,stimuli/Eagle/060103.wav,stimuli/Tiger/050103.wav,NA,1,-24dB,Flat,W_3,1,1,0,0,0
115,stimuli/tones/silence.wav,1.25,111,noResp,NA,R_3,stimuli/Baron6dB/070102.wav,stimuli/Hopper/030003.wav,stimuli/Hopper/030302.wav,NA,1,silence,silence,R_3,1,0,0,1,0
115,stimuli/tones/PercTri-33dB.wav,0.75,112,space,1.9002,R_3,stimuli/Baron6dB/070101.wav,stimuli/Tiger/050300.wav,stimuli/Charlie/000001.wav,NA,1,-33dB,PercTri,R_2,0,1,0,0,0
115,stimuli/tones/FlatIEC-24dB.wav,2,113,noResp,NA,W_3,stimuli/Baron6dB/070202.wav,stimuli/Laker/020300.wav,stimuli/Hopper/030001.wav,NA,0,-24dB,Flat,W_3,1,0,1,0,0
115,stimuli/tones/silence.wav,1.25,114,noResp,NA,G_1,stimuli/Baron6dB/070300.wav,stimuli/Laker/020202.wav,stimuli/Ringo/010002.wav,NA,1,silence,silence,G_1,1,0,0,1,0
115,stimuli/tones/silence.wav,0.75,115,noResp,NA,B_4,stimuli/Baron6dB/070003.wav,stimuli/Eagle/060202.wav,stimuli/Ringo/010000.wav,NA,1,silence,silence,B_4,1,0,0,1,0
115,stimuli/tones/FlatIEC-21dB.wav,2,116,space,2.8843,W_1,stimuli/Baron6dB/070200.wav,stimuli/Hopper/030000.wav,stimuli/Eagle/060303.wav,NA,1,-21dB,Flat,W_1,1,1,0,0,0
115,stimuli/tones/silence.wav,0.75,117,noResp,NA,R_1,stimuli/Baron6dB/070100.wav,stimuli/Tiger/050202.wav,stimuli/Arrow/040301.wav,NA,1,silence,silence,R_1,1,0,0,1,0
115,stimuli/tones/silence.wav,1.25,118,space,0.4759,R_4,stimuli/Baron6dB/070102.wav,stimuli/Charlie/000103.wav,stimuli/Tiger/050103.wav,NA,0,silence,silence,R_3,0,0,0,0,1
115,stimuli/tones/silence.wav,2,119,noResp,NA,G_4,stimuli/Baron6dB/070303.wav,stimuli/Charlie/000301.wav,stimuli/Charlie/000002.wav,NA,1,silence,silence,G_4,1,0,0,1,0
115,stimuli/tones/silence.wav,1.25,120,noResp,NA,B_3,stimuli/Baron6dB/070002.wav,stimuli/Hopper/030100.wav,stimuli/Hopper/030301.wav,NA,1,silence,silence,B_3,1,0,0,1,0
115,stimuli/tones/PercTri-21dB.wav,2,121,space,2.3916,W_4,stimuli/Baron6dB/070203.wav,stimuli/Eagle/060001.wav,stimuli/Hopper/030200.wav,NA,1,-21dB,PercTri,W_4,1,1,0,0,0
115,stimuli/tones/silence.wav,0.75,122,noResp,NA,G_3,stimuli/Baron6dB/070302.wav,stimuli/Eagle/060002.wav,stimuli/Laker/020302.wav,NA,1,silence,silence,G_3,1,0,0,1,0
115,stimuli/tones/FlatIEC-21dB.wav,1.25,123,space,2.4512,G_2,stimuli/Baron6dB/070301.wav,stimuli/Hopper/030002.wav,stimuli/Arrow/040001.wav,NA,1,-21dB,Flat,G_2,1,1,0,0,0
115,stimuli/tones/silence.wav,1.25,124,noResp,NA,B_1,stimuli/Baron6dB/070000.wav,stimuli/Tiger/050103.wav,stimuli/Arrow/040003.wav,NA,1,silence,silence,B_1,1,0,0,1,0
115,stimuli/tones/silence.wav,1.25,125,noResp,NA,B_2,stimuli/Baron6dB/070001.wav,stimuli/Ringo/010202.wav,stimuli/Tiger/050200.wav,NA,1,silence,silence,B_2,1,0,0,1,0
115,stimuli/tones/silence.wav,2,126,noResp,NA,R_4,stimuli/Baron6dB/070103.wav,stimuli/Eagle/060003.wav,stimuli/Eagle/060203.wav,NA,1,silence,silence,R_4,1,0,0,1,0
115,stimuli/tones/FlatIEC-33dB.wav,0.75,127,noResp,NA,W_2,stimuli/Baron6dB/070201.wav,stimuli/Laker/020201.wav,stimuli/Tiger/050203.wav,NA,0,-33dB,Flat,W_2,1,0,1,0,0
115,stimuli/tones/FlatIEC-18dB.wav,2,128,space,2.7158,G_4,stimuli/Baron6dB/070303.wav,stimuli/Eagle/060301.wav,stimuli/Laker/020001.wav,NA,1,-18dB,Flat,G_4,1,1,0,0,0
115,stimuli/tones/FlatIEC-27dB.wav,0.75,129,noResp,NA,W_4,stimuli/Baron6dB/070203.wav,stimuli/Eagle/060201.wav,stimuli/Hopper/030201.wav,NA,0,-27dB,Flat,W_4,1,0,1,0,0
115,stimuli/tones/FlatIEC-24dB.wav,1.25,130,space,1.8831,G_1,stimuli/Baron6dB/070300.wav,stimuli/Hopper/030202.wav,stimuli/Eagle/060202.wav,NA,1,-24dB,Flat,G_1,1,1,0,0,0
115,stimuli/tones/silence.wav,0.75,131,noResp,NA,R_4,stimuli/Baron6dB/070103.wav,stimuli/Arrow/040301.wav,stimuli/Arrow/040002.wav,NA,1,silence,silence,R_4,1,0,0,1,0
115,stimuli/tones/FlatIEC-30dB.wav,0.75,132,noResp,NA,G_2,stimuli/Baron6dB/070301.wav,stimuli/Ringo/010003.wav,stimuli/Laker/020102.wav,NA,0,-30dB,Flat,G_2,1,0,1,0,0
115,stimuli/tones/silence.wav,1.25,133,noResp,NA,B_3,stimuli/Baron6dB/070002.wav,stimuli/Ringo/010200.wav,stimuli/Arrow/040200.wav,NA,1,silence,silence,B_3,1,0,0,1,0
115,stimuli/tones/silence.wav,1.25,134,space,2.182,B_4,stimuli/Baron6dB/070003.wav,stimuli/Arrow/040200.wav,stimuli/Arrow/040300.wav,NA,0,silence,silence,B_4,1,0,0,0,1
115,stimuli/tones/PercTri-18dB.wav,1.25,135,space,1.766,B_1,stimuli/Baron6dB/070000.wav,stimuli/Ringo/010103.wav,stimuli/Tiger/050301.wav,NA,1,-18dB,PercTri,B_1,1,1,0,0,0
115,stimuli/tones/silence.wav,0.75,136,noResp,NA,W_2,stimuli/Baron6dB/070201.wav,stimuli/Eagle/060101.wav,stimuli/Tiger/050003.wav,NA,1,silence,silence,W_2,1,0,0,1,0
115,stimuli/tones/FlatIEC-24dB.wav,1.25,137,space,2.5701,W_1,stimuli/Baron6dB/070100.wav,stimuli/Laker/020102.wav,stimuli/Hopper/030303.wav,NA,1,-24dB,Flat,R_1,0,1,0,0,0
115,stimuli/tones/silence.wav,2,138,noResp,NA,R_2,stimuli/Baron6dB/070101.wav,stimuli/Laker/020001.wav,stimuli/Eagle/060000.wav,NA,1,silence,silence,R_2,1,0,0,1,0
115,stimuli/tones/silence.wav,0.75,139,noResp,NA,W_3,stimuli/Baron6dB/070202.wav,stimuli/Charlie/000203.wav,stimuli/Hopper/030202.wav,NA,1,silence,silence,W_3,1,0,0,1,0
115,stimuli/tones/PercTri-24dB.wav,2,140,space,3.3837,W_1,stimuli/Baron6dB/070200.wav,stimuli/Hopper/030300.wav,stimuli/Eagle/060201.wav,NA,1,-24dB,PercTri,W_1,1,1,0,0,0
115,stimuli/tones/FlatIEC-27dB.wav,2,141,space,2.7679,R_3,stimuli/Baron6dB/070102.wav,stimuli/Eagle/060203.wav,stimuli/Eagle/060102.wav,NA,1,-27dB,Flat,R_3,1,1,0,0,0
115,stimuli/tones/PercTri-21dB.wav,1.25,142,space,1.7011,B_2,stimuli/Baron6dB/070001.wav,stimuli/Charlie/000201.wav,stimuli/Ringo/010200.wav,NA,1,-21dB,PercTri,B_2,1,1,0,0,0
115,stimuli/tones/silence.wav,2,143,space,4.0996,G_3,stimuli/Baron6dB/070302.wav,stimuli/Laker/020101.wav,stimuli/Ringo/010201.wav,NA,0,silence,silence,G_3,1,0,0,0,1
115,stimuli/tones/silence.wav,2,144,noResp,NA,B_1,stimuli/Baron6dB/070000.wav,stimuli/Ringo/010302.wav,stimuli/Eagle/060302.wav,NA,1,silence,silence,B_1,1,0,0,1,0
115,stimuli/tones/PercTri-27dB.wav,2,145,space,3.4249,B_2,stimuli/Baron6dB/070001.wav,stimuli/Laker/020203.wav,stimuli/Charlie/000300.wav,NA,1,-27dB,PercTri,B_2,1,1,0,0,0
115,stimuli/tones/FlatIEC-18dB.wav,0.75,146,space,0.9207,B_3,stimuli/Baron6dB/070002.wav,stimuli/Tiger/050303.wav,stimuli/Hopper/030002.wav,NA,1,-18dB,Flat,B_3,1,1,0,0,0
115,stimuli/tones/silence.wav,2,147,noResp,NA,R_4,stimuli/Baron6dB/070103.wav,stimuli/Charlie/000002.wav,stimuli/Laker/020100.wav,NA,1,silence,silence,R_4,1,0,0,1,0
115,stimuli/tones/PercTri-18dB.wav,2,148,space,2.7756,G_2,stimuli/Baron6dB/070301.wav,stimuli/Hopper/030103.wav,stimuli/Arrow/040203.wav,NA,1,-18dB,PercTri,G_2,1,1,0,0,0
115,stimuli/tones/silence.wav,2,149,space,1.7516,G_4,stimuli/Baron6dB/070303.wav,stimuli/Tiger/050002.wav,stimuli/Hopper/030102.wav,NA,0,silence,silence,G_4,1,0,0,0,1
115,stimuli/tones/PercTri-18dB.wav,2,150,noResp,NA,R_2,stimuli/Baron6dB/070101.wav,stimuli/Charlie/000300.wav,stimuli/Ringo/010100.wav,NA,0,-18dB,PercTri,R_2,1,0,1,0,0
115,stimuli/tones/FlatIEC-21dB.wav,1.25,151,space,1.9452,R_1,stimuli/Baron6dB/070100.wav,stimuli/Hopper/030201.wav,stimuli/Tiger/050001.wav,NA,1,-21dB,Flat,R_1,1,1,0,0,0
115,stimuli/tones/FlatIEC-30dB.wav,1.25,152,noResp,NA,B_4,stimuli/Baron6dB/070003.wav,stimuli/Ringo/010000.wav,stimuli/Hopper/030300.wav,NA,0,-30dB,Flat,B_4,1,0,1,0,0
115,stimuli/tones/FlatIEC-21dB.wav,0.75,153,space,2.1266,W_4,stimuli/Baron6dB/070203.wav,stimuli/Laker/020003.wav,stimuli/Eagle/060001.wav,NA,1,-21dB,Flat,W_4,1,1,0,0,0
115,stimuli/tones/PercTri-24dB.wav,0.75,154,space,1.2992,G_1,stimuli/Baron6dB/070300.wav,stimuli/Arrow/040102.wav,stimuli/Laker/020301.wav,NA,1,-24dB,PercTri,G_1,1,1,0,0,0
115,stimuli/tones/silence.wav,2,155,noResp,NA,W_1,stimuli/Baron6dB/070200.wav,stimuli/Laker/020200.wav,stimuli/Charlie/000100.wav,NA,1,silence,silence,W_1,1,0,0,1,0
115,stimuli/tones/silence.wav,0.75,156,noResp,NA,W_2,stimuli/Baron6dB/070201.wav,stimuli/Tiger/050302.wav,stimuli/Ringo/010001.wav,NA,1,silence,silence,W_2,1,0,0,1,0
115,stimuli/tones/silence.wav,1.25,157,noResp,NA,W_3,stimuli/Baron6dB/070202.wav,stimuli/Charlie/000003.wav,stimuli/Laker/020002.wav,NA,1,silence,silence,W_3,1,0,0,1,0
115,stimuli/tones/PercTri-33dB.wav,0.75,158,space,1.2932,G_3,stimuli/Baron6dB/070302.wav,stimuli/Hopper/030102.wav,stimuli/Arrow/040201.wav,NA,1,-33dB,PercTri,G_3,1,1,0,0,0
115,stimuli/tones/FlatIEC-24dB.wav,2,159,space,2.7944,R_3,stimuli/Baron6dB/070102.wav,stimuli/Charlie/000302.wav,stimuli/Hopper/030203.wav,NA,1,-24dB,Flat,R_3,1,1,0,0,0
115,stimuli/tones/silence.wav,2,160,noResp,NA,W_2,stimuli/Baron6dB/070201.wav,stimuli/Arrow/040202.wav,stimuli/Arrow/040102.wav,NA,1,silence,silence,W_2,1,0,0,1,0
115,stimuli/tones/FlatIEC-18dB.wav,0.75,161,space,1.3333,B_1,stimuli/Baron6dB/070000.wav,stimuli/Hopper/030203.wav,stimuli/Eagle/060003.wav,NA,1,-18dB,Flat,B_1,1,1,0,0,0
115,stimuli/tones/silence.wav,1.25,162,noResp,NA,B_4,stimuli/Baron6dB/070003.wav,stimuli/Eagle/060102.wav,stimuli/Laker/020203.wav,NA,1,silence,silence,B_4,1,0,0,1,0
115,stimuli/tones/silence.wav,2,163,noResp,NA,G_3,stimuli/Baron6dB/070302.wav,stimuli/Tiger/050203.wav,stimuli/Laker/020103.wav,NA,1,silence,silence,G_3,1,0,0,1,0
115,stimuli/tones/PercTri-33dB.wav,0.75,164,noResp,NA,G_1,stimuli/Baron6dB/070300.wav,stimuli/Tiger/050001.wav,stimuli/Ringo/010203.wav,NA,0,-33dB,PercTri,G_1,1,0,1,0,0
115,stimuli/tones/PercTri-30dB.wav,0.75,165,space,1.2766,G_4,stimuli/Baron6dB/070303.wav,stimuli/Ringo/010001.wav,stimuli/Tiger/050102.wav,NA,1,-30dB,PercTri,G_4,1,1,0,0,0
115,stimuli/tones/silence.wav,2,166,noResp,NA,B_3,stimuli/Baron6dB/070002.wav,stimuli/Ringo/010101.wav,stimuli/Tiger/050302.wav,NA,1,silence,silence,B_3,1,0,0,1,0
115,stimuli/tones/silence.wav,0.75,167,noResp,NA,R_4,stimuli/Baron6dB/070103.wav,stimuli/Hopper/030301.wav,stimuli/Arrow/040101.wav,NA,1,silence,silence,R_4,1,0,0,1,0
115,stimuli/tones/FlatIEC-27dB.wav,1.25,168,space,2.5982,R_2,stimuli/Baron6dB/070101.wav,stimuli/Tiger/050102.wav,stimuli/Tiger/050201.wav,NA,1,-27dB,Flat,R_2,1,1,0,0,0
115,stimuli/tones/PercTri-24dB.wav,0.75,169,space,1.265,W_4,stimuli/Baron6dB/070203.wav,stimuli/Arrow/040303.wav,stimuli/Ringo/010101.wav,NA,1,-24dB,PercTri,W_4,1,1,0,0,0
115,stimuli/tones/FlatIEC-33dB.wav,2,170,space,2.6603,G_2,stimuli/Baron6dB/070301.wav,stimuli/Arrow/040002.wav,stimuli/Tiger/050202.wav,NA,1,-33dB,Flat,G_2,1,1,0,0,0
115,stimuli/tones/FlatIEC-24dB.wav,0.75,171,noResp,NA,R_1,stimuli/Baron6dB/070100.wav,stimuli/Hopper/030303.wav,stimuli/Ringo/010301.wav,NA,0,-24dB,Flat,R_1,1,0,1,0,0
115,stimuli/tones/silence.wav,1.25,172,noResp,NA,B_2,stimuli/Baron6dB/070001.wav,stimuli/Charlie/000102.wav,stimuli/Tiger/050303.wav,NA,1,silence,silence,B_2,1,0,0,1,0
115,stimuli/tones/PercTri-27dB.wav,2,173,space,2.3641,W_1,stimuli/Baron6dB/070200.wav,stimuli/Charlie/000200.wav,stimuli/Charlie/000302.wav,NA,1,-27dB,PercTri,W_1,1,1,0,0,0
115,stimuli/tones/PercTri-24dB.wav,1.25,174,space,1.8162,G_3,stimuli/Baron6dB/070102.wav,stimuli/Laker/020002.wav,stimuli/Hopper/030302.wav,NA,1,-24dB,PercTri,R_3,0,1,0,0,0
115,stimuli/tones/PercTri-21dB.wav,0.75,175,space,1.3592,W_3,stimuli/Baron6dB/070202.wav,stimuli/Hopper/030001.wav,stimuli/Laker/020201.wav,NA,1,-21dB,PercTri,W_3,1,1,0,0,0
115,stimuli/tones/silence.wav,2,176,noResp,NA,R_3,stimuli/Baron6dB/070302.wav,stimuli/Charlie/000202.wav,stimuli/Charlie/000101.wav,NA,1,silence,silence,G_3,0,0,0,1,0
115,stimuli/tones/silence.wav,2,177,noResp,NA,W_3,stimuli/Baron6dB/070202.wav,stimuli/Laker/020301.wav,stimuli/Charlie/000303.wav,NA,1,silence,silence,W_3,1,0,0,1,0
115,stimuli/tones/silence.wav,1.25,178,noResp,NA,W_1,stimuli/Baron6dB/070200.wav,stimuli/Arrow/040003.wav,stimuli/Charlie/000201.wav,NA,1,silence,silence,W_1,1,0,0,1,0
115,stimuli/tones/FlatIEC-30dB.wav,2,179,space,2.6992,B_1,stimuli/Baron6dB/070000.wav,stimuli/Hopper/030003.wav,stimuli/Charlie/000103.wav,NA,1,-30dB,Flat,B_1,1,1,0,0,0
115,stimuli/tones/silence.wav,1.25,180,noResp,NA,G_4,stimuli/Baron6dB/070303.wav,stimuli/Arrow/040001.wav,stimuli/Arrow/040303.wav,NA,1,silence,silence,G_4,1,0,0,1,0
115,stimuli/tones/FlatIEC-30dB.wav,2,181,noResp,NA,W_1,stimuli/Baron6dB/070101.wav,stimuli/Eagle/060200.wav,stimuli/Arrow/040100.wav,NA,0,-30dB,Flat,R_2,0,0,1,0,0
115,stimuli/tones/PercTri-27dB.wav,2,182,space,2.4702,B_4,stimuli/Baron6dB/070003.wav,stimuli/Arrow/040101.wav,stimuli/Hopper/030003.wav,NA,1,-27dB,PercTri,B_4,1,1,0,0,0
115,stimuli/tones/PercTri-30dB.wav,2,183,space,2.5495,R_1,stimuli/Baron6dB/070102.wav,stimuli/Eagle/060300.wav,stimuli/Ringo/010300.wav,NA,1,-30dB,PercTri,R_3,0,1,0,0,0
115,stimuli/tones/PercTri-33dB.wav,1.25,184,space,2.2096,W_2,stimuli/Baron6dB/070201.wav,stimuli/Arrow/040000.wav,stimuli/Hopper/030101.wav,NA,1,-33dB,PercTri,W_2,1,1,0,0,0
115,stimuli/tones/FlatIEC-27dB.wav,1.25,185,space,2.7823,R_4,stimuli/Baron6dB/070103.wav,stimuli/Arrow/040302.wav,stimuli/Laker/020101.wav,NA,1,-27dB,Flat,R_4,1,1,0,0,0
115,stimuli/tones/PercTri-30dB.wav,1.25,186,space,1.7463,G_2,stimuli/Baron6dB/070301.wav,stimuli/Tiger/050201.wav,stimuli/Ringo/010103.wav,NA,1,-30dB,PercTri,G_2,1,1,0,0,0
115,stimuli/tones/FlatIEC-30dB.wav,2,187,space,2.5769,W_4,stimuli/Baron6dB/070203.wav,stimuli/Eagle/060000.wav,stimuli/Charlie/000102.wav,NA,1,-30dB,Flat,W_4,1,1,0,0,0
115,stimuli/tones/FlatIEC-27dB.wav,2,188,space,2.6606,G_1,stimuli/Baron6dB/070300.wav,stimuli/Tiger/050000.wav,stimuli/Laker/020303.wav,NA,1,-27dB,Flat,G_1,1,1,0,0,0
115,stimuli/tones/FlatIEC-18dB.wav,1.25,189,space,1.8004,B_2,stimuli/Baron6dB/070001.wav,stimuli/Ringo/010301.wav,stimuli/Eagle/060300.wav,NA,1,-18dB,Flat,B_2,1,1,0,0,0
115,stimuli/tones/silence.wav,1.25,190,noResp,NA,R_1,stimuli/Baron6dB/070100.wav,stimuli/Eagle/060302.wav,stimuli/Laker/020003.wav,NA,1,silence,silence,R_1,1,0,0,1,0
115,stimuli/tones/PercTri-27dB.wav,1.25,191,space,1.717,B_3,stimuli/Baron6dB/070002.wav,stimuli/Hopper/030200.wav,stimuli/Laker/020000.wav,NA,1,-27dB,PercTri,B_3,1,1,0,0,0
115,stimuli/tones/PercTri-24dB.wav,2,192,space,2.7024,B_3,stimuli/Baron6dB/070002.wav,stimuli/Charlie/000100.wav,stimuli/Eagle/060101.wav,NA,1,-24dB,PercTri,B_3,1,1,0,0,0
115,stimuli/tones/silence.wav,0.75,193,noResp,NA,G_3,stimuli/Baron6dB/070302.wav,stimuli/Tiger/050200.wav,stimuli/Tiger/050101.wav,NA,1,silence,silence,G_3,1,0,0,1,0
115,stimuli/tones/silence.wav,2,194,noResp,NA,R_4,stimuli/Baron6dB/070103.wav,stimuli/Arrow/040300.wav,stimuli/Eagle/060103.wav,NA,1,silence,silence,R_4,1,0,0,1,0
115,stimuli/tones/FlatIEC-33dB.wav,0.75,195,noResp,NA,R_1,stimuli/Baron6dB/070100.wav,stimuli/Eagle/060100.wav,stimuli/Arrow/040302.wav,NA,0,-33dB,Flat,R_1,1,0,1,0,0
115,stimuli/tones/PercTri-33dB.wav,1.25,196,space,2.4182,W_1,stimuli/Baron6dB/070202.wav,stimuli/Charlie/000303.wav,stimuli/Laker/020200.wav,NA,1,-33dB,PercTri,W_3,0,1,0,0,0
115,stimuli/tones/PercTri-33dB.wav,2,197,space,2.9018,R_2,stimuli/Baron6dB/070101.wav,stimuli/Arrow/040203.wav,stimuli/Ringo/010003.wav,NA,1,-33dB,PercTri,R_2,1,1,0,0,0
115,stimuli/tones/silence.wav,1.25,198,noResp,NA,W_2,stimuli/Baron6dB/070201.wav,stimuli/Laker/020303.wav,stimuli/Hopper/030103.wav,NA,1,silence,silence,W_2,1,0,0,1,0
115,stimuli/tones/PercTri-27dB.wav,1.25,199,space,1.6992,B_1,stimuli/Baron6dB/070000.wav,stimuli/Charlie/000000.wav,stimuli/Laker/020300.wav,NA,1,-27dB,PercTri,B_1,1,1,0,0,0
115,stimuli/tones/silence.wav,0.75,200,noResp,NA,R_4,stimuli/Baron6dB/070003.wav,stimuli/Tiger/050101.wav,stimuli/Tiger/050000.wav,NA,1,silence,silence,B_4,0,0,0,1,0
115,stimuli/tones/silence.wav,1.25,201,noResp,NA,B_2,stimuli/Baron6dB/070001.wav,stimuli/Tiger/050003.wav,stimuli/Eagle/060100.wav,NA,1,silence,silence,B_2,1,0,0,1,0
115,stimuli/tones/silence.wav,1.25,202,noResp,NA,W_4,stimuli/Baron6dB/070203.wav,stimuli/Hopper/030101.wav,stimuli/Arrow/040202.wav,NA,1,silence,silence,W_4,1,0,0,1,0
115,stimuli/tones/FlatIEC-21dB.wav,0.75,203,space,1.9005,W_1,stimuli/Baron6dB/070300.wav,stimuli/Ringo/010303.wav,stimuli/Tiger/050002.wav,NA,1,-21dB,Flat,G_1,0,1,0,0,0
115,stimuli/tones/FlatIEC-18dB.wav,1.25,204,space,2.3485,R_3,stimuli/Baron6dB/070102.wav,stimuli/Ringo/010203.wav,stimuli/Ringo/010102.wav,NA,1,-18dB,Flat,R_3,1,1,0,0,0
115,stimuli/tones/PercTri-27dB.wav,0.75,205,space,1.6818,B_4,stimuli/Baron6dB/070303.wav,stimuli/Eagle/060303.wav,stimuli/Laker/020202.wav,NA,1,-27dB,PercTri,G_4,0,1,0,0,0
115,stimuli/tones/FlatIEC-33dB.wav,0.75,206,space,1.836,G_2,stimuli/Baron6dB/070301.wav,stimuli/Tiger/050301.wav,stimuli/Eagle/060200.wav,NA,1,-33dB,Flat,G_2,1,1,0,0,0
115,stimuli/tones/silence.wav,0.75,207,noResp,NA,W_1,stimuli/Baron6dB/070200.wav,stimuli/Ringo/010100.wav,stimuli/Eagle/060301.wav,NA,1,silence,silence,W_1,1,0,0,1,0
115,stimuli/tones/PercTri-30dB.wav,1.25,208,space,1.9258,B_1,stimuli/Baron6dB/070000.wav,stimuli/Arrow/040103.wav,stimuli/Hopper/030000.wav,NA,1,-30dB,PercTri,B_1,1,1,0,0,0
115,stimuli/tones/silence.wav,1.25,209,noResp,NA,G_2,stimuli/Baron6dB/070301.wav,stimuli/Laker/020103.wav,stimuli/Ringo/010202.wav,NA,1,silence,silence,G_2,1,0,0,1,0
115,stimuli/tones/PercTri-30dB.wav,2,210,space,2.8753,G_1,stimuli/Baron6dB/070300.wav,stimuli/Hopper/030302.wav,stimuli/Tiger/050100.wav,NA,1,-30dB,PercTri,G_1,1,1,0,0,0
115,stimuli/tones/silence.wav,0.75,211,space,3.7007,R_3,stimuli/Baron6dB/070202.wav,stimuli/Laker/020100.wav,stimuli/Ringo/010303.wav,NA,0,silence,silence,W_3,0,0,0,0,1
115,stimuli/tones/silence.wav,2,212,noResp,NA,W_4,stimuli/Baron6dB/070203.wav,stimuli/Ringo/010102.wav,stimuli/Charlie/000200.wav,NA,1,silence,silence,W_4,1,0,0,1,0
115,stimuli/tones/silence.wav,1.25,213,noResp,NA,W_3,stimuli/Baron6dB/070102.wav,stimuli/Ringo/010201.wav,stimuli/Ringo/010302.wav,NA,1,silence,silence,R_3,0,0,0,1,0
115,stimuli/tones/FlatIEC-30dB.wav,1.25,214,noResp,NA,B_4,stimuli/Baron6dB/070003.wav,stimuli/Ringo/010300.wav,stimuli/Hopper/030100.wav,NA,0,-30dB,Flat,B_4,1,0,1,0,0
115,stimuli/tones/silence.wav,0.75,215,noResp,NA,G_4,stimuli/Baron6dB/070303.wav,stimuli/Ringo/010002.wav,stimuli/Charlie/000203.wav,NA,1,silence,silence,G_4,1,0,0,1,0
F2024_1,stimuli/tones/silence.wav,2,0,noResp,NA,R_2,stimuli/Baron6dB/070101.wav,stimuli/Eagle/060200.wav,stimuli/Ringo/010100.wav,NA,1,silence,silence,R_2,1,0,0,1,0
F2024_1,stimuli/tones/silence.wav,1.25,1,noResp,NA,G_3,stimuli/Baron6dB/070302.wav,stimuli/Hopper/030102.wav,stimuli/Tiger/050103.wav,NA,1,silence,silence,G_3,1,0,0,1,0
F2024_1,stimuli/tones/silence.wav,0.75,2,noResp,NA,B_4,stimuli/Baron6dB/070003.wav,stimuli/Tiger/050303.wav,stimuli/Arrow/040100.wav,NA,1,silence,silence,B_4,1,0,0,1,0
F2024_1,stimuli/tones/silence.wav,0.75,3,noResp,NA,G_1,stimuli/Baron6dB/070300.wav,stimuli/Ringo/010300.wav,stimuli/Eagle/060202.wav,NA,1,silence,silence,G_1,1,0,0,1,0
F2024_1,stimuli/tones/PercTri-21dB.wav,2,4,space,2.8758,G_2,stimuli/Baron6dB/070301.wav,stimuli/Arrow/040200.wav,stimuli/Laker/020201.wav,NA,1,-21dB,PercTri,G_2,1,1,0,0,0
F2024_1,stimuli/tones/silence.wav,2,5,noResp,NA,R_3,stimuli/Baron6dB/070102.wav,stimuli/Charlie/000201.wav,stimuli/Charlie/000301.wav,NA,1,silence,silence,R_3,1,0,0,1,0
F2024_1,stimuli/tones/silence.wav,0.75,6,noResp,NA,B_1,stimuli/Baron6dB/070000.wav,stimuli/Arrow/040103.wav,stimuli/Hopper/030201.wav,NA,1,silence,silence,B_1,1,0,0,1,0
F2024_1,stimuli/tones/PercTri-21dB.wav,1.25,7,space,1.9437,W_2,stimuli/Baron6dB/070001.wav,stimuli/Tiger/050103.wav,stimuli/Arrow/040303.wav,NA,1,-21dB,PercTri,B_2,0,1,0,0,0
F2024_1,stimuli/tones/FlatIEC-18dB.wav,1.25,8,noResp,NA,W_1,stimuli/Baron6dB/070100.wav,stimuli/Laker/020201.wav,stimuli/Hopper/030200.wav,NA,0,-18dB,Flat,R_1,0,0,1,0,0
F2024_1,stimuli/tones/FlatIEC-33dB.wav,1.25,9,space,0.3597,W_1,stimuli/Baron6dB/070200.wav,stimuli/Laker/020302.wav,stimuli/Arrow/040002.wav,NA,1,-33dB,Flat,W_1,1,1,0,0,0
F2024_1,stimuli/tones/PercTri-30dB.wav,2,10,space,2.6279,W_4,stimuli/Baron6dB/070203.wav,stimuli/Eagle/060300.wav,stimuli/Laker/020002.wav,NA,1,-30dB,PercTri,W_4,1,1,0,0,0
F2024_1,stimuli/tones/FlatIEC-33dB.wav,2,11,noResp,NA,G_4,stimuli/Baron6dB/070303.wav,stimuli/Arrow/040100.wav,stimuli/Eagle/060100.wav,NA,0,-33dB,Flat,G_4,1,0,1,0,0
F2024_1,stimuli/tones/FlatIEC-21dB.wav,2,12,space,2.5861,R_4,stimuli/Baron6dB/070103.wav,stimuli/Arrow/040202.wav,stimuli/Tiger/050002.wav,NA,1,-21dB,Flat,R_4,1,1,0,0,0
F2024_1,stimuli/tones/silence.wav,1.25,13,noResp,NA,W_2,stimuli/Baron6dB/070201.wav,stimuli/Hopper/030101.wav,stimuli/Laker/020003.wav,NA,1,silence,silence,W_2,1,0,0,1,0
F2024_1,stimuli/tones/PercTri-21dB.wav,0.75,14,space,1.1424,B_3,stimuli/Baron6dB/070002.wav,stimuli/Eagle/060103.wav,stimuli/Eagle/060200.wav,NA,1,-21dB,PercTri,B_3,1,1,0,0,0
F2024_1,stimuli/tones/silence.wav,1.25,15,noResp,NA,W_3,stimuli/Baron6dB/070202.wav,stimuli/Eagle/060003.wav,stimuli/Tiger/050003.wav,NA,1,silence,silence,W_3,1,0,0,1,0
F2024_1,stimuli/tones/silence.wav,2,16,noResp,NA,W_4,stimuli/Baron6dB/070203.wav,stimuli/Ringo/010103.wav,stimuli/Laker/020101.wav,NA,1,silence,silence,W_4,1,0,0,1,0
F2024_1,stimuli/tones/PercTri-24dB.wav,0.75,17,space,1.6996,G_4,stimuli/Baron6dB/070303.wav,stimuli/Hopper/030301.wav,stimuli/Hopper/030301.wav,NA,1,-24dB,PercTri,G_4,1,1,0,0,0
F2024_1,stimuli/tones/FlatIEC-24dB.wav,1.25,18,space,2.7993,G_2,stimuli/Baron6dB/070300.wav,stimuli/Charlie/000203.wav,stimuli/Eagle/060301.wav,NA,1,-24dB,Flat,G_1,0,1,0,0,0
F2024_1,stimuli/tones/FlatIEC-30dB.wav,2,19,space,3.0247,R_4,stimuli/Baron6dB/070103.wav,stimuli/Hopper/030100.wav,stimuli/Ringo/010300.wav,NA,1,-30dB,Flat,R_4,1,1,0,0,0
F2024_1,stimuli/tones/PercTri-21dB.wav,2,20,space,2.5718,W_2,stimuli/Baron6dB/070201.wav,stimuli/Hopper/030000.wav,stimuli/Eagle/060203.wav,NA,1,-21dB,PercTri,W_2,1,1,0,0,0
F2024_1,stimuli/tones/silence.wav,1.25,21,space,2.0909,G_3,stimuli/Baron6dB/070302.wav,stimuli/Laker/020101.wav,stimuli/Laker/020303.wav,NA,0,silence,silence,G_3,1,0,0,0,1
F2024_1,stimuli/tones/PercTri-18dB.wav,2,22,space,2.5254,B_4,stimuli/Baron6dB/070003.wav,stimuli/Laker/020301.wav,stimuli/Charlie/000002.wav,NA,1,-18dB,PercTri,B_4,1,1,0,0,0
F2024_1,stimuli/tones/silence.wav,0.75,23,space,2.5099,W_2,stimuli/Baron6dB/070101.wav,stimuli/Laker/020303.wav,stimuli/Charlie/000203.wav,NA,0,silence,silence,R_2,0,0,0,0,1
F2024_1,stimuli/tones/silence.wav,1.25,24,noResp,NA,W_3,stimuli/Baron6dB/070001.wav,stimuli/Hopper/030103.wav,stimuli/Arrow/040202.wav,NA,1,silence,silence,B_2,0,0,0,1,0
F2024_1,stimuli/tones/PercTri-33dB.wav,1.25,25,space,1.8001,R_1,stimuli/Baron6dB/070100.wav,stimuli/Tiger/050002.wav,stimuli/Charlie/000101.wav,NA,1,-33dB,PercTri,R_1,1,1,0,0,0
F2024_1,stimuli/tones/PercTri-24dB.wav,2,26,space,2.7082,B_1,stimuli/Baron6dB/070000.wav,stimuli/Charlie/000002.wav,stimuli/Ringo/010201.wav,NA,1,-24dB,PercTri,B_1,1,1,0,0,0
F2024_1,stimuli/tones/silence.wav,2,27,noResp,NA,R_3,stimuli/Baron6dB/070102.wav,stimuli/Ringo/010200.wav,stimuli/Eagle/060001.wav,NA,1,silence,silence,R_3,1,0,0,1,0
F2024_1,stimuli/tones/silence.wav,0.75,28,noResp,NA,G_2,stimuli/Baron6dB/070301.wav,stimuli/Eagle/060203.wav,stimuli/Charlie/000300.wav,NA,1,silence,silence,G_2,1,0,0,1,0
F2024_1,stimuli/tones/silence.wav,1.25,29,noResp,NA,B_3,stimuli/Baron6dB/070002.wav,stimuli/Ringo/010303.wav,stimuli/Laker/020302.wav,NA,1,silence,silence,B_3,1,0,0,1,0
F2024_1,stimuli/tones/silence.wav,0.75,30,noResp,NA,W_1,stimuli/Baron6dB/070200.wav,stimuli/Arrow/040201.wav,stimuli/Ringo/010202.wav,NA,1,silence,silence,W_1,1,0,0,1,0
F2024_1,stimuli/tones/silence.wav,0.75,31,noResp,NA,W_3,stimuli/Baron6dB/070202.wav,stimuli/Hopper/030003.wav,stimuli/Hopper/030103.wav,NA,1,silence,silence,W_3,1,0,0,1,0
F2024_1,stimuli/tones/silence.wav,2,32,noResp,NA,W_1,stimuli/Baron6dB/070200.wav,stimuli/Hopper/030200.wav,stimuli/Ringo/010103.wav,NA,1,silence,silence,W_1,1,0,0,1,0
F2024_1,stimuli/tones/PercTri-27dB.wav,2,33,space,2.5656,W_2,stimuli/Baron6dB/070201.wav,stimuli/Arrow/040300.wav,stimuli/Ringo/010003.wav,NA,1,-27dB,PercTri,W_2,1,1,0,0,0
F2024_1,stimuli/tones/PercTri-33dB.wav,2,34,space,2.5187,B_3,stimuli/Baron6dB/070002.wav,stimuli/Eagle/060302.wav,stimuli/Laker/020300.wav,NA,1,-33dB,PercTri,B_3,1,1,0,0,0
F2024_1,stimuli/tones/silence.wav,0.75,35,noResp,NA,G_2,stimuli/Baron6dB/070301.wav,stimuli/Hopper/030300.wav,stimuli/Charlie/000001.wav,NA,1,silence,silence,G_2,1,0,0,1,0
F2024_1,stimuli/tones/silence.wav,0.75,36,noResp,NA,R_2,stimuli/Baron6dB/070101.wav,stimuli/Charlie/000200.wav,stimuli/Laker/020202.wav,NA,1,silence,silence,R_2,1,0,0,1,0
F2024_1,stimuli/tones/silence.wav,2,37,noResp,NA,G_3,stimuli/Baron6dB/070302.wav,stimuli/Ringo/010001.wav,stimuli/Arrow/040103.wav,NA,1,silence,silence,G_3,1,0,0,1,0
F2024_1,stimuli/tones/silence.wav,2,38,noResp,NA,G_4,stimuli/Baron6dB/070303.wav,stimuli/Charlie/000001.wav,stimuli/Hopper/030102.wav,NA,1,silence,silence,G_4,1,0,0,1,0
F2024_1,stimuli/tones/silence.wav,2,39,noResp,NA,B_2,stimuli/Baron6dB/070001.wav,stimuli/Eagle/060101.wav,stimuli/Hopper/030303.wav,NA,1,silence,silence,B_2,1,0,0,1,0
F2024_1,stimuli/tones/silence.wav,0.75,40,noResp,NA,B_4,stimuli/Baron6dB/070003.wav,stimuli/Charlie/000300.wav,stimuli/Arrow/040101.wav,NA,1,silence,silence,B_4,1,0,0,1,0
F2024_1,stimuli/tones/silence.wav,1.25,41,noResp,NA,R_4,stimuli/Baron6dB/070103.wav,stimuli/Laker/020102.wav,stimuli/Charlie/000103.wav,NA,1,silence,silence,R_4,1,0,0,1,0
F2024_1,stimuli/tones/FlatIEC-27dB.wav,0.75,42,noResp,NA,G_1,stimuli/Baron6dB/070100.wav,stimuli/Charlie/000100.wav,stimuli/Eagle/060201.wav,NA,0,-27dB,Flat,R_1,0,0,1,0,0
F2024_1,stimuli/tones/PercTri-18dB.wav,1.25,43,space,1.9331,W_3,stimuli/Baron6dB/070202.wav,stimuli/Arrow/040101.wav,stimuli/Laker/020102.wav,NA,1,-18dB,PercTri,W_3,1,1,0,0,0
F2024_1,stimuli/tones/silence.wav,0.75,44,noResp,NA,W_4,stimuli/Baron6dB/070203.wav,stimuli/Charlie/000103.wav,stimuli/Eagle/060300.wav,NA,1,silence,silence,W_4,1,0,0,1,0
F2024_1,stimuli/tones/silence.wav,0.75,45,noResp,NA,R_3,stimuli/Baron6dB/070102.wav,stimuli/Tiger/050000.wav,stimuli/Laker/020200.wav,NA,1,silence,silence,R_3,1,0,0,1,0
F2024_1,stimuli/tones/silence.wav,2,46,noResp,NA,B_1,stimuli/Baron6dB/070000.wav,stimuli/Hopper/030303.wav,stimuli/Laker/020001.wav,NA,1,silence,silence,B_1,1,0,0,1,0
F2024_1,stimuli/tones/PercTri-24dB.wav,0.75,47,space,1.3359,G_1,stimuli/Baron6dB/070300.wav,stimuli/Arrow/040303.wav,stimuli/Ringo/010102.wav,NA,1,-24dB,PercTri,G_1,1,1,0,0,0
F2024_1,stimuli/tones/silence.wav,1.25,48,noResp,NA,B_1,stimuli/Baron6dB/070000.wav,stimuli/Eagle/060001.wav,stimuli/Tiger/050302.wav,NA,1,silence,silence,B_1,1,0,0,1,0
F2024_1,stimuli/tones/FlatIEC-18dB.wav,2,49,space,2.666,G_1,stimuli/Baron6dB/070300.wav,stimuli/Eagle/060303.wav,stimuli/Hopper/030100.wav,NA,1,-18dB,Flat,G_1,1,1,0,0,0
F2024_1,stimuli/tones/silence.wav,2,50,noResp,NA,R_2,stimuli/Baron6dB/070101.wav,stimuli/Hopper/030203.wav,stimuli/Eagle/060002.wav,NA,1,silence,silence,R_2,1,0,0,1,0
F2024_1,stimuli/tones/FlatIEC-21dB.wav,0.75,51,space,1.6949,W_4,stimuli/Baron6dB/070203.wav,stimuli/Arrow/040003.wav,stimuli/Tiger/050300.wav,NA,1,-21dB,Flat,W_4,1,1,0,0,0
F2024_1,stimuli/tones/PercTri-33dB.wav,0.75,52,space,1.466,G_4,stimuli/Baron6dB/070303.wav,stimuli/Hopper/030302.wav,stimuli/Arrow/040001.wav,NA,1,-33dB,PercTri,G_4,1,1,0,0,0
F2024_1,stimuli/tones/silence.wav,0.75,53,space,2.8827,R_4,stimuli/Baron6dB/070103.wav,stimuli/Laker/020203.wav,stimuli/Ringo/010002.wav,NA,0,silence,silence,R_4,1,0,0,0,1
F2024_1,stimuli/tones/PercTri-30dB.wav,1.25,54,space,3.8006,G_2,stimuli/Baron6dB/070301.wav,stimuli/Ringo/010301.wav,stimuli/Tiger/050001.wav,NA,1,-30dB,PercTri,G_2,1,1,0,0,0
F2024_1,stimuli/tones/silence.wav,0.75,55,noResp,NA,B_3,stimuli/Baron6dB/070002.wav,stimuli/Laker/020002.wav,stimuli/Tiger/050200.wav,NA,1,silence,silence,B_3,1,0,0,1,0
F2024_1,stimuli/tones/PercTri-18dB.wav,2,56,space,2.6583,G_3,stimuli/Baron6dB/070302.wav,stimuli/Arrow/040002.wav,stimuli/Ringo/010001.wav,NA,1,-18dB,PercTri,G_3,1,1,0,0,0
F2024_1,stimuli/tones/silence.wav,0.75,57,noResp,NA,R_3,stimuli/Baron6dB/070102.wav,stimuli/Laker/020200.wav,stimuli/Ringo/010101.wav,NA,1,silence,silence,R_3,1,0,0,1,0
F2024_1,stimuli/tones/silence.wav,1.25,58,noResp,NA,W_3,stimuli/Baron6dB/070202.wav,stimuli/Charlie/000000.wav,stimuli/Arrow/040003.wav,NA,1,silence,silence,W_3,1,0,0,1,0
F2024_1,stimuli/tones/FlatIEC-18dB.wav,1.25,59,space,1.8595,G_2,stimuli/Baron6dB/070001.wav,stimuli/Tiger/050301.wav,stimuli/Charlie/000102.wav,NA,1,-18dB,Flat,B_2,0,1,0,0,0
F2024_1,stimuli/tones/FlatIEC-27dB.wav,0.75,60,noResp,NA,W_1,stimuli/Baron6dB/070100.wav,stimuli/Hopper/030201.wav,stimuli/Tiger/050201.wav,NA,0,-27dB,Flat,R_1,0,0,1,0,0
F2024_1,stimuli/tones/silence.wav,2,61,space,2.5257,B_4,stimuli/Baron6dB/070003.wav,stimuli/Hopper/030001.wav,stimuli/Arrow/040300.wav,NA,0,silence,silence,B_4,1,0,0,0,1
F2024_1,stimuli/tones/PercTri-30dB.wav,2,62,space,2.525,W_2,stimuli/Baron6dB/070201.wav,stimuli/Eagle/060202.wav,stimuli/Charlie/000003.wav,NA,1,-30dB,PercTri,W_2,1,1,0,0,0
F2024_1,stimuli/tones/PercTri-33dB.wav,0.75,63,space,1.5933,W_1,stimuli/Baron6dB/070200.wav,stimuli/Laker/020003.wav,stimuli/Ringo/010200.wav,NA,1,-33dB,PercTri,W_1,1,1,0,0,0
F2024_1,stimuli/tones/FlatIEC-18dB.wav,0.75,64,noResp,NA,W_4,stimuli/Baron6dB/070203.wav,stimuli/Eagle/060201.wav,stimuli/Ringo/010203.wav,NA,0,-18dB,Flat,W_4,1,0,1,0,0
F2024_1,stimuli/tones/silence.wav,0.75,65,noResp,NA,W_1,stimuli/Baron6dB/070200.wav,stimuli/Arrow/040203.wav,stimuli/Charlie/000302.wav,NA,1,silence,silence,W_1,1,0,0,1,0
F2024_1,stimuli/tones/silence.wav,1.25,66,noResp,NA,R_1,stimuli/Baron6dB/070100.wav,stimuli/Arrow/040302.wav,stimuli/Tiger/050301.wav,NA,1,silence,silence,R_1,1,0,0,1,0
F2024_1,stimuli/tones/silence.wav,1.25,67,noResp,NA,W_2,stimuli/Baron6dB/070201.wav,stimuli/Charlie/000003.wav,stimuli/Ringo/010302.wav,NA,1,silence,silence,W_2,1,0,0,1,0
F2024_1,stimuli/tones/silence.wav,0.75,68,noResp,NA,W_3,stimuli/Baron6dB/070102.wav,stimuli/Laker/020103.wav,stimuli/Tiger/050303.wav,NA,1,silence,silence,R_3,0,0,0,1,0
F2024_1,stimuli/tones/silence.wav,2,69,noResp,NA,G_2,stimuli/Baron6dB/070301.wav,stimuli/Laker/020100.wav,stimuli/Charlie/000200.wav,NA,1,silence,silence,G_2,1,0,0,1,0
F2024_1,stimuli/tones/silence.wav,2,70,noResp,NA,B_3,stimuli/Baron6dB/070002.wav,stimuli/Laker/020300.wav,stimuli/Hopper/030003.wav,NA,1,silence,silence,B_3,1,0,0,1,0
F2024_1,stimuli/tones/FlatIEC-24dB.wav,0.75,71,noResp,NA,B_1,stimuli/Baron6dB/070000.wav,stimuli/Ringo/010201.wav,stimuli/Laker/020301.wav,NA,0,-24dB,Flat,B_1,1,0,1,0,0
F2024_1,stimuli/tones/PercTri-27dB.wav,0.75,72,space,1.1994,R_2,stimuli/Baron6dB/070101.wav,stimuli/Tiger/050001.wav,stimuli/Ringo/010000.wav,NA,1,-27dB,PercTri,R_2,1,1,0,0,0
F2024_1,stimuli/tones/FlatIEC-24dB.wav,1.25,73,space,2.9487,G_4,stimuli/Baron6dB/070303.wav,stimuli/Ringo/010000.wav,stimuli/Hopper/030300.wav,NA,1,-24dB,Flat,G_4,1,1,0,0,0
F2024_1,stimuli/tones/silence.wav,0.75,74,noResp,NA,R_4,stimuli/Baron6dB/070103.wav,stimuli/Tiger/050100.wav,stimuli/Arrow/040200.wav,NA,1,silence,silence,R_4,1,0,0,1,0
F2024_1,stimuli/tones/PercTri-30dB.wav,2,75,space,2.6614,B_2,stimuli/Baron6dB/070001.wav,stimuli/Hopper/030202.wav,stimuli/Eagle/060101.wav,NA,1,-30dB,PercTri,B_2,1,1,0,0,0
F2024_1,stimuli/tones/PercTri-27dB.wav,1.25,76,space,1.594,B_4,stimuli/Baron6dB/070003.wav,stimuli/Arrow/040301.wav,stimuli/Hopper/030302.wav,NA,1,-27dB,PercTri,B_4,1,1,0,0,0
F2024_1,stimuli/tones/silence.wav,2,77,noResp,NA,W_3,stimuli/Baron6dB/070202.wav,stimuli/Laker/020202.wav,stimuli/Charlie/000202.wav,NA,1,silence,silence,W_3,1,0,0,1,0
F2024_1,stimuli/tones/silence.wav,1.25,78,noResp,NA,B_1,stimuli/Baron6dB/070302.wav,stimuli/Charlie/000301.wav,stimuli/Hopper/030000.wav,NA,1,silence,silence,G_3,0,0,0,1,0
F2024_1,stimuli/tones/FlatIEC-30dB.wav,1.25,79,space,2.8416,G_1,stimuli/Baron6dB/070300.wav,stimuli/Charlie/000101.wav,stimuli/Ringo/010301.wav,NA,1,-30dB,Flat,G_1,1,1,0,0,0
F2024_1,stimuli/tones/silence.wav,2,80,noResp,NA,R_3,stimuli/Baron6dB/070102.wav,stimuli/Arrow/040102.wav,stimuli/Tiger/050101.wav,NA,1,silence,silence,R_3,1,0,0,1,0
F2024_1,stimuli/tones/silence.wav,0.75,81,noResp,NA,R_1,stimuli/Baron6dB/070100.wav,stimuli/Eagle/060100.wav,stimuli/Arrow/040000.wav,NA,1,silence,silence,R_1,1,0,0,1,0
F2024_1,stimuli/tones/silence.wav,2,82,noResp,NA,B_2,stimuli/Baron6dB/070001.wav,stimuli/Ringo/010202.wav,stimuli/Ringo/010303.wav,NA,1,silence,silence,B_2,1,0,0,1,0
F2024_1,stimuli/tones/FlatIEC-33dB.wav,1.25,83,noResp,NA,G_3,stimuli/Baron6dB/070302.wav,stimuli/Charlie/000302.wav,stimuli/Arrow/040102.wav,NA,0,-33dB,Flat,G_3,1,0,1,0,0
F2024_1,stimuli/tones/silence.wav,1.25,84,noResp,NA,B_1,stimuli/Baron6dB/070000.wav,stimuli/Ringo/010100.wav,stimuli/Eagle/060000.wav,NA,1,silence,silence,B_1,1,0,0,1,0
F2024_1,stimuli/tones/PercTri-24dB.wav,2,85,space,2.709,R_4,stimuli/Baron6dB/070103.wav,stimuli/Arrow/040001.wav,stimuli/Eagle/060102.wav,NA,1,-24dB,PercTri,R_4,1,1,0,0,0
F2024_1,stimuli/tones/silence.wav,2,86,noResp,NA,B_3,stimuli/Baron6dB/070002.wav,stimuli/Laker/020000.wav,stimuli/Arrow/040203.wav,NA,1,silence,silence,B_3,1,0,0,1,0
F2024_1,stimuli/tones/PercTri-24dB.wav,0.75,87,space,1.1763,R_2,stimuli/Baron6dB/070101.wav,stimuli/Tiger/050101.wav,stimuli/Tiger/050000.wav,NA,1,-24dB,PercTri,R_2,1,1,0,0,0
F2024_1,stimuli/tones/PercTri-24dB.wav,1.25,88,space,2.2522,G_1,stimuli/Baron6dB/070300.wav,stimuli/Tiger/050102.wav,stimuli/Laker/020100.wav,NA,1,-24dB,PercTri,G_1,1,1,0,0,0
F2024_1,stimuli/tones/silence.wav,2,89,noResp,NA,W_1,stimuli/Baron6dB/070200.wav,stimuli/Eagle/060102.wav,stimuli/Eagle/060302.wav,NA,1,silence,silence,W_1,1,0,0,1,0
F2024_1,stimuli/tones/PercTri-27dB.wav,1.25,90,space,2.142,G_4,stimuli/Baron6dB/070303.wav,stimuli/Charlie/000202.wav,stimuli/Tiger/050102.wav,NA,1,-27dB,PercTri,G_4,1,1,0,0,0
F2024_1,stimuli/tones/silence.wav,2,91,noResp,NA,B_2,stimuli/Baron6dB/070301.wav,stimuli/Tiger/050202.wav,stimuli/Tiger/050202.wav,NA,1,silence,silence,G_2,0,0,0,1,0
F2024_1,stimuli/tones/silence.wav,2,92,noResp,NA,B_4,stimuli/Baron6dB/070201.wav,stimuli/Tiger/050302.wav,stimuli/Eagle/060003.wav,NA,1,silence,silence,W_2,0,0,0,1,0
F2024_1,stimuli/tones/silence.wav,2,93,noResp,NA,W_4,stimuli/Baron6dB/070203.wav,stimuli/Tiger/050201.wav,stimuli/Laker/020000.wav,NA,1,silence,silence,W_4,1,0,0,1,0
F2024_1,stimuli/tones/silence.wav,0.75,94,noResp,NA,W_3,stimuli/Baron6dB/070202.wav,stimuli/Eagle/060301.wav,stimuli/Charlie/000303.wav,NA,1,silence,silence,W_3,1,0,0,1,0
F2024_1,stimuli/tones/silence.wav,2,95,noResp,NA,B_4,stimuli/Baron6dB/070003.wav,stimuli/Charlie/000102.wav,stimuli/Tiger/050100.wav,NA,1,silence,silence,B_4,1,0,0,1,0
F2024_1,stimuli/tones/silence.wav,2,96,noResp,NA,G_1,stimuli/Baron6dB/070300.wav,stimuli/Laker/020001.wav,stimuli/Eagle/060103.wav,NA,1,silence,silence,G_1,1,0,0,1,0
F2024_1,stimuli/tones/silence.wav,2,97,noResp,NA,B_3,stimuli/Baron6dB/070002.wav,stimuli/Tiger/050300.wav,stimuli/Arrow/040301.wav,NA,1,silence,silence,B_3,1,0,0,1,0
F2024_1,stimuli/tones/FlatIEC-18dB.wav,0.75,98,noResp,NA,W_3,stimuli/Baron6dB/070202.wav,stimuli/Ringo/010203.wav,stimuli/Eagle/060303.wav,NA,0,-18dB,Flat,W_3,1,0,1,0,0
F2024_1,stimuli/tones/PercTri-24dB.wav,2,99,space,3.2317,B_2,stimuli/Baron6dB/070001.wav,stimuli/Tiger/050200.wav,stimuli/Hopper/030001.wav,NA,1,-24dB,PercTri,B_2,1,1,0,0,0
F2024_1,stimuli/tones/PercTri-33dB.wav,1.25,100,space,1.7441,G_1,stimuli/Baron6dB/070000.wav,stimuli/Tiger/050003.wav,stimuli/Charlie/000100.wav,NA,1,-33dB,PercTri,B_1,0,1,0,0,0
F2024_1,stimuli/tones/FlatIEC-30dB.wav,0.75,101,noResp,NA,W_2,stimuli/Baron6dB/070201.wav,stimuli/Eagle/060002.wav,stimuli/Charlie/000201.wav,NA,0,-30dB,Flat,W_2,1,0,1,0,0
F2024_1,stimuli/tones/PercTri-24dB.wav,1.25,102,space,1.8482,G_2,stimuli/Baron6dB/070301.wav,stimuli/Tiger/050203.wav,stimuli/Hopper/030002.wav,NA,1,-24dB,PercTri,G_2,1,1,0,0,0
F2024_1,stimuli/tones/silence.wav,0.75,103,noResp,NA,B_2,stimuli/Baron6dB/070101.wav,stimuli/Charlie/000303.wav,stimuli/Hopper/030101.wav,NA,1,silence,silence,R_2,0,0,0,1,0
F2024_1,stimuli/tones/FlatIEC-21dB.wav,2,104,space,3.1523,G_3,stimuli/Baron6dB/070302.wav,stimuli/Ringo/010003.wav,stimuli/Hopper/030203.wav,NA,1,-21dB,Flat,G_3,1,1,0,0,0
F2024_1,stimuli/tones/PercTri-18dB.wav,1.25,105,space,2.0827,B_4,stimuli/Baron6dB/070003.wav,stimuli/Hopper/030002.wav,stimuli/Tiger/050203.wav,NA,1,-18dB,PercTri,B_4,1,1,0,0,0
F2024_1,stimuli/tones/silence.wav,0.75,106,noResp,NA,R_1,stimuli/Baron6dB/070100.wav,stimuli/Ringo/010101.wav,stimuli/Arrow/040201.wav,NA,1,silence,silence,R_1,1,0,0,1,0
F2024_1,stimuli/tones/PercTri-21dB.wav,1.25,107,space,1.6834,W_4,stimuli/Baron6dB/070203.wav,stimuli/Ringo/010302.wav,stimuli/Laker/020103.wav,NA,1,-21dB,PercTri,W_4,1,1,0,0,0
F2024_1,stimuli/tones/silence.wav,0.75,108,noResp,NA,W_3,stimuli/Baron6dB/070103.wav,stimuli/Arrow/040000.wav,stimuli/Hopper/030202.wav,NA,1,silence,silence,R_4,0,0,0,1,0
F2024_1,stimuli/tones/PercTri-30dB.wav,0.75,109,space,1.3017,G_4,stimuli/Baron6dB/070303.wav,stimuli/Ringo/010002.wav,stimuli/Charlie/000000.wav,NA,1,-30dB,PercTri,G_4,1,1,0,0,0
F2024_1,stimuli/tones/PercTri-18dB.wav,2,110,space,2.566,R_3,stimuli/Baron6dB/070102.wav,stimuli/Eagle/060000.wav,stimuli/Arrow/040302.wav,NA,1,-18dB,PercTri,R_3,1,1,0,0,0
F2024_1,stimuli/tones/FlatIEC-18dB.wav,1.25,111,space,2.5024,W_1,stimuli/Baron6dB/070200.wav,stimuli/Ringo/010102.wav,stimuli/Laker/020203.wav,NA,1,-18dB,Flat,W_1,1,1,0,0,0
F2024_1,stimuli/tones/FlatIEC-33dB.wav,2,112,space,2.6326,B_4,stimuli/Baron6dB/070103.wav,stimuli/Ringo/010003.wav,stimuli/Laker/020302.wav,NA,1,-33dB,Flat,R_4,0,1,0,0,0
F2024_1,stimuli/tones/FlatIEC-30dB.wav,0.75,113,noResp,NA,W_3,stimuli/Baron6dB/070202.wav,stimuli/Hopper/030300.wav,stimuli/Charlie/000103.wav,NA,0,-30dB,Flat,W_3,1,0,1,0,0
F2024_1,stimuli/tones/PercTri-21dB.wav,2,114,space,2.4684,B_2,stimuli/Baron6dB/070001.wav,stimuli/Hopper/030303.wav,stimuli/Arrow/040101.wav,NA,1,-21dB,PercTri,B_2,1,1,0,0,0
F2024_1,stimuli/tones/silence.wav,1.25,115,noResp,NA,R_2,stimuli/Baron6dB/070101.wav,stimuli/Laker/020103.wav,stimuli/Ringo/010100.wav,NA,1,silence,silence,R_2,1,0,0,1,0
F2024_1,stimuli/tones/silence.wav,0.75,116,noResp,NA,G_4,stimuli/Baron6dB/070303.wav,stimuli/Hopper/030301.wav,stimuli/Eagle/060301.wav,NA,1,silence,silence,G_4,1,0,0,1,0
F2024_1,stimuli/tones/FlatIEC-21dB.wav,1.25,117,space,2.3111,W_1,stimuli/Baron6dB/070200.wav,stimuli/Laker/020100.wav,stimuli/Laker/020201.wav,NA,1,-21dB,Flat,W_1,1,1,0,0,0
F2024_1,stimuli/tones/FlatIEC-33dB.wav,1.25,118,noResp,NA,G_3,stimuli/Baron6dB/070302.wav,stimuli/Arrow/040101.wav,stimuli/Tiger/050000.wav,NA,0,-33dB,Flat,G_3,1,0,1,0,0
F2024_1,stimuli/tones/PercTri-33dB.wav,1.25,119,space,1.6928,W_3,stimuli/Baron6dB/070102.wav,stimuli/Laker/020102.wav,stimuli/Tiger/050200.wav,NA,1,-33dB,PercTri,R_3,0,1,0,0,0
F2024_1,stimuli/tones/FlatIEC-33dB.wav,0.75,120,space,1.2661,W_4,stimuli/Baron6dB/070203.wav,stimuli/Eagle/060302.wav,stimuli/Eagle/060002.wav,NA,1,-33dB,Flat,W_4,1,1,0,0,0
F2024_1,stimuli/tones/silence.wav,1.25,121,noResp,NA,G_1,stimuli/Baron6dB/070300.wav,stimuli/Laker/020203.wav,stimuli/Eagle/060200.wav,NA,1,silence,silence,G_1,1,0,0,1,0
F2024_1,stimuli/tones/FlatIEC-21dB.wav,1.25,122,space,1.8922,W_4,stimuli/Baron6dB/070002.wav,stimuli/Eagle/060003.wav,stimuli/Hopper/030103.wav,NA,1,-21dB,Flat,B_3,0,1,0,0,0
F2024_1,stimuli/tones/silence.wav,1.25,123,space,1.1329,W_1,stimuli/Baron6dB/070000.wav,stimuli/Ringo/010303.wav,stimuli/Tiger/050203.wav,NA,0,silence,silence,B_1,0,0,0,0,1
F2024_1,stimuli/tones/FlatIEC-33dB.wav,0.75,124,noResp,NA,G_2,stimuli/Baron6dB/070301.wav,stimuli/Arrow/040100.wav,stimuli/Laker/020002.wav,NA,0,-33dB,Flat,G_2,1,0,1,0,0
F2024_1,stimuli/tones/silence.wav,0.75,125,noResp,NA,W_2,stimuli/Baron6dB/070201.wav,stimuli/Laker/020002.wav,stimuli/Charlie/000202.wav,NA,1,silence,silence,W_2,1,0,0,1,0
F2024_1,stimuli/tones/FlatIEC-30dB.wav,1.25,126,space,2.7272,R_1,stimuli/Baron6dB/070100.wav,stimuli/Laker/020001.wav,stimuli/Charlie/000003.wav,NA,1,-30dB,Flat,R_1,1,1,0,0,0
F2024_1,stimuli/tones/silence.wav,2,127,space,2.2444,B_4,stimuli/Baron6dB/070003.wav,stimuli/Ringo/010201.wav,stimuli/Charlie/000203.wav,NA,0,silence,silence,B_4,1,0,0,0,1
F2024_1,stimuli/tones/silence.wav,2,128,noResp,NA,W_3,stimuli/Baron6dB/070202.wav,stimuli/Tiger/050001.wav,stimuli/Hopper/030302.wav,NA,1,silence,silence,W_3,1,0,0,1,0
F2024_1,stimuli/tones/silence.wav,1.25,129,noResp,NA,W_3,stimuli/Baron6dB/070303.wav,stimuli/Ringo/010002.wav,stimuli/Hopper/030202.wav,NA,1,silence,silence,G_4,0,0,0,1,0
F2024_1,stimuli/tones/FlatIEC-21dB.wav,0.75,130,noResp,NA,G_2,stimuli/Baron6dB/070301.wav,stimuli/Tiger/050002.wav,stimuli/Laker/020102.wav,NA,0,-21dB,Flat,G_2,1,0,1,0,0
F2024_1,stimuli/tones/silence.wav,1.25,131,noResp,NA,B_2,stimuli/Baron6dB/070001.wav,stimuli/Hopper/030302.wav,stimuli/Hopper/030001.wav,NA,1,silence,silence,B_2,1,0,0,1,0
F2024_1,stimuli/tones/FlatIEC-21dB.wav,1.25,132,space,2.6431,W_4,stimuli/Baron6dB/070203.wav,stimuli/Arrow/040002.wav,stimuli/Arrow/040201.wav,NA,1,-21dB,Flat,W_4,1,1,0,0,0
F2024_1,stimuli/tones/FlatIEC-27dB.wav,1.25,133,space,2.6516,R_2,stimuli/Baron6dB/070101.wav,stimuli/Arrow/040001.wav,stimuli/Arrow/040301.wav,NA,1,-27dB,Flat,R_2,1,1,0,0,0
F2024_1,stimuli/tones/silence.wav,1.25,134,noResp,NA,B_4,stimuli/Baron6dB/070003.wav,stimuli/Eagle/060202.wav,stimuli/Eagle/060103.wav,NA,1,silence,silence,B_4,1,0,0,1,0
F2024_1,stimuli/tones/silence.wav,1.25,135,noResp,NA,R_1,stimuli/Baron6dB/070100.wav,stimuli/Hopper/030200.wav,stimuli/Tiger/050301.wav,NA,1,silence,silence,R_1,1,0,0,1,0
F2024_1,stimuli/tones/silence.wav,2,136,noResp,NA,W_2,stimuli/Baron6dB/070201.wav,stimuli/Charlie/000202.wav,stimuli/Ringo/010003.wav,NA,1,silence,silence,W_2,1,0,0,1,0
F2024_1,stimuli/tones/silence.wav,1.25,137,noResp,NA,R_4,stimuli/Baron6dB/070103.wav,stimuli/Hopper/030003.wav,stimuli/Laker/020301.wav,NA,1,silence,silence,R_4,1,0,0,1,0
F2024_1,stimuli/tones/PercTri-27dB.wav,0.75,138,space,1.2417,G_1,stimuli/Baron6dB/070300.wav,stimuli/Arrow/040003.wav,stimuli/Eagle/060203.wav,NA,1,-27dB,PercTri,G_1,1,1,0,0,0
F2024_1,stimuli/tones/FlatIEC-30dB.wav,1.25,139,space,2.827,B_1,stimuli/Baron6dB/070000.wav,stimuli/Arrow/040000.wav,stimuli/Charlie/000301.wav,NA,1,-30dB,Flat,B_1,1,1,0,0,0
F2024_1,stimuli/tones/silence.wav,0.75,140,noResp,NA,R_3,stimuli/Baron6dB/070102.wav,stimuli/Tiger/050202.wav,stimuli/Tiger/050302.wav,NA,1,silence,silence,R_3,1,0,0,1,0
F2024_1,stimuli/tones/PercTri-33dB.wav,2,141,space,2.6014,G_3,stimuli/Baron6dB/070302.wav,stimuli/Arrow/040203.wav,stimuli/Hopper/030301.wav,NA,1,-33dB,PercTri,G_3,1,1,0,0,0
F2024_1,stimuli/tones/silence.wav,2,142,noResp,NA,W_1,stimuli/Baron6dB/070200.wav,stimuli/Arrow/040103.wav,stimuli/Laker/020100.wav,NA,1,silence,silence,W_1,1,0,0,1,0
F2024_1,stimuli/tones/silence.wav,2,143,noResp,NA,B_3,stimuli/Baron6dB/070002.wav,stimuli/Charlie/000300.wav,stimuli/Charlie/000002.wav,NA,1,silence,silence,B_3,1,0,0,1,0
F2024_1,stimuli/tones/FlatIEC-30dB.wav,0.75,144,space,1.5244,G_3,stimuli/Baron6dB/070102.wav,stimuli/Arrow/040302.wav,stimuli/Eagle/060201.wav,NA,1,-30dB,Flat,R_3,0,1,0,0,0
F2024_1,stimuli/tones/silence.wav,1.25,145,noResp,NA,B_3,stimuli/Baron6dB/070002.wav,stimuli/Charlie/000301.wav,stimuli/Charlie/000200.wav,NA,1,silence,silence,B_3,1,0,0,1,0
F2024_1,stimuli/tones/silence.wav,0.75,146,noResp,NA,W_4,stimuli/Baron6dB/070203.wav,stimuli/Hopper/030001.wav,stimuli/Arrow/040100.wav,NA,1,silence,silence,W_4,1,0,0,1,0
F2024_1,stimuli/tones/silence.wav,2,147,space,0.3778,B_1,stimuli/Baron6dB/070000.wav,stimuli/Ringo/010302.wav,stimuli/Arrow/040000.wav,NA,0,silence,silence,B_1,1,0,0,0,1
F2024_1,stimuli/tones/PercTri-30dB.wav,1.25,148,space,1.6364,G_2,stimuli/Baron6dB/070301.wav,stimuli/Laker/020300.wav,stimuli/Tiger/050003.wav,NA,1,-30dB,PercTri,G_2,1,1,0,0,0
F2024_1,stimuli/tones/PercTri-33dB.wav,0.75,149,space,1.3605,R_4,stimuli/Baron6dB/070103.wav,stimuli/Laker/020000.wav,stimuli/Charlie/000001.wav,NA,1,-33dB,PercTri,R_4,1,1,0,0,0
F2024_1,stimuli/tones/silence.wav,1.25,150,noResp,NA,G_4,stimuli/Baron6dB/070303.wav,stimuli/Hopper/030002.wav,stimuli/Charlie/000300.wav,NA,1,silence,silence,G_4,1,0,0,1,0
F2024_1,stimuli/tones/silence.wav,1.25,151,noResp,NA,G_3,stimuli/Baron6dB/070302.wav,stimuli/Eagle/060203.wav,stimuli/Tiger/050103.wav,NA,1,silence,silence,G_3,1,0,0,1,0
F2024_1,stimuli/tones/silence.wav,1.25,152,noResp,NA,B_4,stimuli/Baron6dB/070003.wav,stimuli/Eagle/060200.wav,stimuli/Eagle/060003.wav,NA,1,silence,silence,B_4,1,0,0,1,0
F2024_1,stimuli/tones/PercTri-30dB.wav,0.75,153,space,1.3492,W_3,stimuli/Baron6dB/070202.wav,stimuli/Hopper/030203.wav,stimuli/Eagle/060102.wav,NA,1,-30dB,PercTri,W_3,1,1,0,0,0
F2024_1,stimuli/tones/silence.wav,2,154,noResp,NA,G_2,stimuli/Baron6dB/070300.wav,stimuli/Arrow/040301.wav,stimuli/Eagle/060001.wav,NA,1,silence,silence,G_1,0,0,0,1,0
F2024_1,stimuli/tones/FlatIEC-24dB.wav,2,155,space,2.6165,R_1,stimuli/Baron6dB/070100.wav,stimuli/Laker/020301.wav,stimuli/Ringo/010203.wav,NA,1,-24dB,Flat,R_1,1,1,0,0,0
F2024_1,stimuli/tones/FlatIEC-18dB.wav,0.75,156,space,1.3455,R_2,stimuli/Baron6dB/070101.wav,stimuli/Eagle/060303.wav,stimuli/Laker/020103.wav,NA,1,-18dB,Flat,R_2,1,1,0,0,0
F2024_1,stimuli/tones/silence.wav,0.75,157,noResp,NA,B_2,stimuli/Baron6dB/070001.wav,stimuli/Charlie/000100.wav,stimuli/Arrow/040203.wav,NA,1,silence,silence,B_2,1,0,0,1,0
F2024_1,stimuli/tones/FlatIEC-30dB.wav,2,158,space,2.7171,W_1,stimuli/Baron6dB/070200.wav,stimuli/Hopper/030100.wav,stimuli/Hopper/030002.wav,NA,1,-30dB,Flat,W_1,1,1,0,0,0
F2024_1,stimuli/tones/PercTri-21dB.wav,0.75,159,space,1.5441,W_2,stimuli/Baron6dB/070201.wav,stimuli/Charlie/000203.wav,stimuli/Charlie/000302.wav,NA,1,-21dB,PercTri,W_2,1,1,0,0,0
F2024_1,stimuli/tones/FlatIEC-27dB.wav,2,160,space,2.5747,G_1,stimuli/Baron6dB/070300.wav,stimuli/Arrow/040102.wav,stimuli/Tiger/050001.wav,NA,1,-27dB,Flat,G_1,1,1,0,0,0
F2024_1,stimuli/tones/silence.wav,0.75,161,noResp,NA,G_3,stimuli/Baron6dB/070302.wav,stimuli/Charlie/000002.wav,stimuli/Eagle/060101.wav,NA,1,silence,silence,G_3,1,0,0,1,0
F2024_1,stimuli/tones/FlatIEC-27dB.wav,0.75,162,noResp,NA,G_4,stimuli/Baron6dB/070303.wav,stimuli/Laker/020202.wav,stimuli/Hopper/030003.wav,NA,0,-27dB,Flat,G_4,1,0,1,0,0
F2024_1,stimuli/tones/silence.wav,0.75,163,noResp,NA,G_2,stimuli/Baron6dB/070202.wav,stimuli/Tiger/050101.wav,stimuli/Hopper/030101.wav,NA,1,silence,silence,W_3,0,0,0,1,0
F2024_1,stimuli/tones/silence.wav,2,164,noResp,NA,R_2,stimuli/Baron6dB/070101.wav,stimuli/Charlie/000000.wav,stimuli/Charlie/000201.wav,NA,1,silence,silence,R_2,1,0,0,1,0
F2024_1,stimuli/tones/PercTri-27dB.wav,2,165,space,2.4744,B_2,stimuli/Baron6dB/070001.wav,stimuli/Charlie/000303.wav,stimuli/Ringo/010001.wav,NA,1,-27dB,PercTri,B_2,1,1,0,0,0
F2024_1,stimuli/tones/silence.wav,2,166,noResp,NA,B_4,stimuli/Baron6dB/070003.wav,stimuli/Ringo/010103.wav,stimuli/Arrow/040300.wav,NA,1,silence,silence,B_4,1,0,0,1,0
F2024_1,stimuli/tones/FlatIEC-24dB.wav,1.25,167,space,2.6596,R_4,stimuli/Baron6dB/070103.wav,stimuli/Arrow/040303.wav,stimuli/Charlie/000303.wav,NA,1,-24dB,Flat,R_4,1,1,0,0,0
F2024_1,stimuli/tones/PercTri-27dB.wav,0.75,168,space,1.3663,G_2,stimuli/Baron6dB/070301.wav,stimuli/Charlie/000102.wav,stimuli/Tiger/050201.wav,NA,1,-27dB,PercTri,G_2,1,1,0,0,0
F2024_1,stimuli/tones/PercTri-33dB.wav,2,169,space,2.5972,R_3,stimuli/Baron6dB/070102.wav,stimuli/Charlie/000103.wav,stimuli/Eagle/060100.wav,NA,1,-33dB,PercTri,R_3,1,1,0,0,0
F2024_1,stimuli/tones/PercTri-30dB.wav,0.75,170,space,1.4757,W_1,stimuli/Baron6dB/070200.wav,stimuli/Ringo/010301.wav,stimuli/Tiger/050101.wav,NA,1,-30dB,PercTri,W_1,1,1,0,0,0
F2024_1,stimuli/tones/silence.wav,0.75,171,noResp,NA,W_2,stimuli/Baron6dB/070201.wav,stimuli/Hopper/030101.wav,stimuli/Eagle/060300.wav,NA,1,silence,silence,W_2,1,0,0,1,0
F2024_1,stimuli/tones/PercTri-18dB.wav,1.25,172,space,1.7578,W_1,stimuli/Baron6dB/070100.wav,stimuli/Eagle/060300.wav,stimuli/Tiger/050100.wav,NA,1,-18dB,PercTri,R_1,0,1,0,0,0
F2024_1,stimuli/tones/FlatIEC-33dB.wav,2,173,space,3.631,W_3,stimuli/Baron6dB/070002.wav,stimuli/Ringo/010102.wav,stimuli/Ringo/010102.wav,NA,1,-33dB,Flat,B_3,0,1,0,0,0
F2024_1,stimuli/tones/FlatIEC-33dB.wav,0.75,174,space,1.433,B_1,stimuli/Baron6dB/070000.wav,stimuli/Tiger/050300.wav,stimuli/Eagle/060000.wav,NA,1,-33dB,Flat,B_1,1,1,0,0,0
F2024_1,stimuli/tones/FlatIEC-21dB.wav,2,175,space,2.3431,W_4,stimuli/Baron6dB/070203.wav,stimuli/Hopper/030201.wav,stimuli/Arrow/040303.wav,NA,1,-21dB,Flat,W_4,1,1,0,0,0
F2024_1,stimuli/tones/silence.wav,0.75,176,noResp,NA,B_4,stimuli/Baron6dB/070003.wav,stimuli/Eagle/060102.wav,stimuli/Ringo/010300.wav,NA,1,silence,silence,B_4,1,0,0,1,0
F2024_1,stimuli/tones/silence.wav,2,177,noResp,NA,G_2,stimuli/Baron6dB/070301.wav,stimuli/Tiger/050000.wav,stimuli/Ringo/010103.wav,NA,1,silence,silence,G_2,1,0,0,1,0
F2024_1,stimuli/tones/silence.wav,0.75,178,space,2.2513,W_3,stimuli/Baron6dB/070103.wav,stimuli/Tiger/050301.wav,stimuli/Hopper/030102.wav,NA,0,silence,silence,R_4,0,0,0,0,1
F2024_1,stimuli/tones/FlatIEC-30dB.wav,2,179,space,2.3487,G_3,stimuli/Baron6dB/070302.wav,stimuli/Tiger/050303.wav,stimuli/Laker/020200.wav,NA,1,-30dB,Flat,G_3,1,1,0,0,0
F2024_1,stimuli/tones/silence.wav,1.25,180,noResp,NA,W_4,stimuli/Baron6dB/070203.wav,stimuli/Eagle/060002.wav,stimuli/Ringo/010200.wav,NA,1,silence,silence,W_4,1,0,0,1,0
F2024_1,stimuli/tones/PercTri-30dB.wav,1.25,181,space,1.8319,R_2,stimuli/Baron6dB/070101.wav,stimuli/Ringo/010202.wav,stimuli/Laker/020203.wav,NA,1,-30dB,PercTri,R_2,1,1,0,0,0
F2024_1,stimuli/tones/FlatIEC-27dB.wav,1.25,182,space,2.4499,B_2,stimuli/Baron6dB/070001.wav,stimuli/Eagle/060001.wav,stimuli/Tiger/050102.wav,NA,1,-27dB,Flat,B_2,1,1,0,0,0
F2024_1,stimuli/tones/FlatIEC-24dB.wav,2,183,space,2.4344,W_2,stimuli/Baron6dB/070201.wav,stimuli/Tiger/050103.wav,stimuli/Arrow/040302.wav,NA,1,-24dB,Flat,W_2,1,1,0,0,0
F2024_1,stimuli/tones/silence.wav,1.25,184,noResp,NA,W_3,stimuli/Baron6dB/070102.wav,stimuli/Hopper/030202.wav,stimuli/Laker/020001.wav,NA,1,silence,silence,R_3,0,0,0,1,0
F2024_1,stimuli/tones/silence.wav,1.25,185,noResp,NA,B_1,stimuli/Baron6dB/070000.wav,stimuli/Arrow/040201.wav,stimuli/Hopper/030203.wav,NA,1,silence,silence,B_1,1,0,0,1,0
F2024_1,stimuli/tones/FlatIEC-24dB.wav,0.75,186,noResp,NA,G_4,stimuli/Baron6dB/070303.wav,stimuli/Laker/020303.wav,stimuli/Hopper/030200.wav,NA,0,-24dB,Flat,G_4,1,0,1,0,0
F2024_1,stimuli/tones/silence.wav,1.25,187,noResp,NA,R_1,stimuli/Baron6dB/070100.wav,stimuli/Laker/020200.wav,stimuli/Ringo/010101.wav,NA,1,silence,silence,R_1,1,0,0,1,0
F2024_1,stimuli/tones/silence.wav,1.25,188,noResp,NA,W_1,stimuli/Baron6dB/070200.wav,stimuli/Tiger/050100.wav,stimuli/Laker/020101.wav,NA,1,silence,silence,W_1,1,0,0,1,0
F2024_1,stimuli/tones/FlatIEC-21dB.wav,0.75,189,space,1.992,G_1,stimuli/Baron6dB/070300.wav,stimuli/Hopper/030102.wav,stimuli/Tiger/050300.wav,NA,1,-21dB,Flat,G_1,1,1,0,0,0
F2024_1,stimuli/tones/FlatIEC-24dB.wav,2,190,space,2.5865,W_3,stimuli/Baron6dB/070202.wav,stimuli/Charlie/000001.wav,stimuli/Tiger/050002.wav,NA,1,-24dB,Flat,W_3,1,1,0,0,0
F2024_1,stimuli/tones/FlatIEC-27dB.wav,1.25,191,space,2.7928,B_3,stimuli/Baron6dB/070002.wav,stimuli/Charlie/000003.wav,stimuli/Charlie/000100.wav,NA,1,-27dB,Flat,B_3,1,1,0,0,0
F2024_1,stimuli/tones/silence.wav,2,192,noResp,NA,B_2,stimuli/Baron6dB/070001.wav,stimuli/Eagle/060000.wav,stimuli/Laker/020003.wav,NA,1,silence,silence,B_2,1,0,0,1,0
F2024_1,stimuli/tones/PercTri-18dB.wav,0.75,193,space,1.2436,G_2,stimuli/Baron6dB/070301.wav,stimuli/Eagle/060301.wav,stimuli/Charlie/000101.wav,NA,1,-18dB,PercTri,G_2,1,1,0,0,0
F2024_1,stimuli/tones/FlatIEC-24dB.wav,0.75,194,noResp,NA,W_2,stimuli/Baron6dB/070201.wav,stimuli/Charlie/000201.wav,stimuli/Arrow/040202.wav,NA,0,-24dB,Flat,W_2,1,0,1,0,0
F2024_1,stimuli/tones/silence.wav,2,195,noResp,NA,G_4,stimuli/Baron6dB/070303.wav,stimuli/Arrow/040200.wav,stimuli/Ringo/010302.wav,NA,1,silence,silence,G_4,1,0,0,1,0
F2024_1,stimuli/tones/PercTri-18dB.wav,0.75,196,space,1.2655,W_1,stimuli/Baron6dB/070200.wav,stimuli/Laker/020003.wav,stimuli/Charlie/000102.wav,NA,1,-18dB,PercTri,W_1,1,1,0,0,0
F2024_1,stimuli/tones/silence.wav,1.25,197,noResp,NA,W_3,stimuli/Baron6dB/070202.wav,stimuli/Hopper/030103.wav,stimuli/Laker/020000.wav,NA,1,silence,silence,W_3,1,0,0,1,0
F2024_1,stimuli/tones/silence.wav,1.25,198,noResp,NA,R_1,stimuli/Baron6dB/070100.wav,stimuli/Ringo/010200.wav,stimuli/Ringo/010000.wav,NA,1,silence,silence,R_1,1,0,0,1,0
F2024_1,stimuli/tones/silence.wav,1.25,199,noResp,NA,R_4,stimuli/Baron6dB/070103.wav,stimuli/Tiger/050003.wav,stimuli/Hopper/030100.wav,NA,1,silence,silence,R_4,1,0,0,1,0
F2024_1,stimuli/tones/silence.wav,0.75,200,noResp,NA,B_1,stimuli/Baron6dB/070000.wav,stimuli/Eagle/060201.wav,stimuli/Arrow/040003.wav,NA,1,silence,silence,B_1,1,0,0,1,0
F2024_1,stimuli/tones/silence.wav,1.25,201,noResp,NA,R_2,stimuli/Baron6dB/070101.wav,stimuli/Arrow/040202.wav,stimuli/Ringo/010202.wav,NA,1,silence,silence,R_2,1,0,0,1,0
F2024_1,stimuli/tones/FlatIEC-18dB.wav,2,202,space,2.6773,G_1,stimuli/Baron6dB/070300.wav,stimuli/Tiger/050200.wav,stimuli/Arrow/040001.wav,NA,1,-18dB,Flat,G_1,1,1,0,0,0
F2024_1,stimuli/tones/PercTri-27dB.wav,2,203,space,2.6091,G_3,stimuli/Baron6dB/070302.wav,stimuli/Ringo/010101.wav,stimuli/Eagle/060303.wav,NA,1,-27dB,PercTri,G_3,1,1,0,0,0
F2024_1,stimuli/tones/PercTri-18dB.wav,0.75,204,space,1.3599,W_4,stimuli/Baron6dB/070203.wav,stimuli/Tiger/050102.wav,stimuli/Ringo/010002.wav,NA,1,-18dB,PercTri,W_4,1,1,0,0,0
F2024_1,stimuli/tones/silence.wav,0.75,205,noResp,NA,R_3,stimuli/Baron6dB/070102.wav,stimuli/Charlie/000101.wav,stimuli/Arrow/040102.wav,NA,1,silence,silence,R_3,1,0,0,1,0
F2024_1,stimuli/tones/PercTri-27dB.wav,1.25,206,space,1.7656,B_4,stimuli/Baron6dB/070003.wav,stimuli/Laker/020302.wav,stimuli/Hopper/030303.wav,NA,1,-27dB,PercTri,B_4,1,1,0,0,0
F2024_1,stimuli/tones/PercTri-24dB.wav,1.25,207,space,1.9508,B_3,stimuli/Baron6dB/070002.wav,stimuli/Tiger/050203.wav,stimuli/Eagle/060202.wav,NA,1,-24dB,PercTri,B_3,1,1,0,0,0
F2024_1,stimuli/tones/FlatIEC-18dB.wav,2,208,space,3.0865,R_3,stimuli/Baron6dB/070102.wav,stimuli/Charlie/000302.wav,stimuli/Arrow/040200.wav,NA,1,-18dB,Flat,R_3,1,1,0,0,0
F2024_1,stimuli/tones/PercTri-21dB.wav,1.25,209,space,1.8597,W_1,stimuli/Baron6dB/070200.wav,stimuli/Tiger/050302.wav,stimuli/Eagle/060302.wav,NA,1,-21dB,PercTri,W_1,1,1,0,0,0
F2024_1,stimuli/tones/FlatIEC-27dB.wav,2,210,noResp,NA,R_2,stimuli/Baron6dB/070101.wav,stimuli/Eagle/060100.wav,stimuli/Laker/020202.wav,NA,0,-27dB,Flat,R_2,1,0,1,0,0
F2024_1,stimuli/tones/silence.wav,1.25,211,space,0.0682,B_1,stimuli/Baron6dB/070000.wav,stimuli/Arrow/040300.wav,stimuli/Hopper/030300.wav,NA,0,silence,silence,B_1,1,0,0,0,1
F2024_1,stimuli/tones/silence.wav,0.75,212,space,1.8744,W_4,stimuli/Baron6dB/070203.wav,stimuli/Charlie/000200.wav,stimuli/Laker/020300.wav,NA,0,silence,silence,W_4,1,0,0,0,1
F2024_1,stimuli/tones/silence.wav,1.25,213,noResp,NA,B_4,stimuli/Baron6dB/070003.wav,stimuli/Laker/020201.wav,stimuli/Ringo/010301.wav,NA,1,silence,silence,B_4,1,0,0,1,0
F2024_1,stimuli/tones/FlatIEC-27dB.wav,2,214,space,2.5758,B_2,stimuli/Baron6dB/070001.wav,stimuli/Ringo/010300.wav,stimuli/Hopper/030000.wav,NA,1,-27dB,Flat,B_2,1,1,0,0,0
F2024_1,stimuli/tones/PercTri-21dB.wav,0.75,215,space,1.3437,G_1,stimuli/Baron6dB/070300.wav,stimuli/Tiger/050201.wav,stimuli/Arrow/040002.wav,NA,1,-21dB,PercTri,G_1,1,1,0,0,0
F2024_10,stimuli/tones/silence.wav,0.75,0,noResp,NA,G_1,stimuli/Baron6dB/070300.wav,stimuli/Ringo/010203.wav,stimuli/Hopper/030302.wav,NA,1,silence,silence,G_1,1,0,0,1,0
F2024_10,stimuli/tones/PercTri-30dB.wav,1.25,1,space,2.5841,R_1,stimuli/Baron6dB/070100.wav,stimuli/Eagle/060303.wav,stimuli/Ringo/010101.wav,NA,1,-30dB,PercTri,R_1,1,1,0,0,0
F2024_10,stimuli/tones/PercTri-24dB.wav,0.75,2,space,3.0875,G_3,stimuli/Baron6dB/070302.wav,stimuli/Laker/020301.wav,stimuli/Ringo/010202.wav,NA,1,-24dB,PercTri,G_3,1,1,0,0,0
F2024_10,stimuli/tones/FlatIEC-27dB.wav,2,3,space,3.2765,B_1,stimuli/Baron6dB/070000.wav,stimuli/Tiger/050100.wav,stimuli/Charlie/000300.wav,NA,1,-27dB,Flat,B_1,1,1,0,0,0
F2024_10,stimuli/tones/silence.wav,2,4,noResp,NA,G_2,stimuli/Baron6dB/070301.wav,stimuli/Arrow/040000.wav,stimuli/Tiger/050000.wav,NA,1,silence,silence,G_2,1,0,0,1,0
F2024_10,stimuli/tones/PercTri-18dB.wav,0.75,5,space,2.5685,G_4,stimuli/Baron6dB/070303.wav,stimuli/Tiger/050300.wav,stimuli/Hopper/030201.wav,NA,1,-18dB,PercTri,G_4,1,1,0,0,0
F2024_10,stimuli/tones/FlatIEC-21dB.wav,0.75,6,noResp,NA,R_2,stimuli/Baron6dB/070101.wav,stimuli/Ringo/010201.wav,stimuli/Eagle/060001.wav,NA,0,-21dB,Flat,R_2,1,0,1,0,0
F2024_10,stimuli/tones/PercTri-30dB.wav,2,7,space,3.7524,R_3,stimuli/Baron6dB/070102.wav,stimuli/Arrow/040201.wav,stimuli/Laker/020303.wav,NA,1,-30dB,PercTri,R_3,1,1,0,0,0
F2024_10,stimuli/tones/silence.wav,0.75,8,noResp,NA,W_3,stimuli/Baron6dB/070202.wav,stimuli/Charlie/000102.wav,stimuli/Laker/020102.wav,NA,1,silence,silence,W_3,1,0,0,1,0
F2024_10,stimuli/tones/silence.wav,1.25,9,noResp,NA,B_4,stimuli/Baron6dB/070003.wav,stimuli/Laker/020102.wav,stimuli/Hopper/030000.wav,NA,1,silence,silence,B_4,1,0,0,1,0
F2024_10,stimuli/tones/silence.wav,1.25,10,noResp,NA,W_4,stimuli/Baron6dB/070203.wav,stimuli/Hopper/030203.wav,stimuli/Eagle/060301.wav,NA,1,silence,silence,W_4,1,0,0,1,0
F2024_10,stimuli/tones/silence.wav,0.75,11,noResp,NA,B_2,stimuli/Baron6dB/070001.wav,stimuli/Arrow/040100.wav,stimuli/Eagle/060003.wav,NA,1,silence,silence,B_2,1,0,0,1,0
F2024_10,stimuli/tones/FlatIEC-33dB.wav,2,12,space,3.6039,B_3,stimuli/Baron6dB/070002.wav,stimuli/Hopper/030302.wav,stimuli/Arrow/040102.wav,NA,1,-33dB,Flat,B_3,1,1,0,0,0
F2024_10,stimuli/tones/PercTri-33dB.wav,2,13,space,3.6997,R_4,stimuli/Baron6dB/070103.wav,stimuli/Tiger/050001.wav,stimuli/Hopper/030101.wav,NA,1,-33dB,PercTri,R_4,1,1,0,0,0
F2024_10,stimuli/tones/silence.wav,2,14,noResp,NA,W_2,stimuli/Baron6dB/070201.wav,stimuli/Arrow/040202.wav,stimuli/Eagle/060100.wav,NA,1,silence,silence,W_2,1,0,0,1,0
F2024_10,stimuli/tones/silence.wav,1.25,15,noResp,NA,W_1,stimuli/Baron6dB/070200.wav,stimuli/Eagle/060302.wav,stimuli/Hopper/030202.wav,NA,1,silence,silence,W_1,1,0,0,1,0
F2024_10,stimuli/tones/FlatIEC-24dB.wav,1.25,16,space,3.3529,W_3,stimuli/Baron6dB/070202.wav,stimuli/Tiger/050202.wav,stimuli/Ringo/010200.wav,NA,1,-24dB,Flat,W_3,1,1,0,0,0
F2024_10,stimuli/tones/FlatIEC-30dB.wav,1.25,17,noResp,NA,R_4,stimuli/Baron6dB/070103.wav,stimuli/Charlie/000202.wav,stimuli/Tiger/050100.wav,NA,0,-30dB,Flat,R_4,1,0,1,0,0
F2024_10,stimuli/tones/FlatIEC-27dB.wav,0.75,18,noResp,NA,G_2,stimuli/Baron6dB/070301.wav,stimuli/Tiger/050201.wav,stimuli/Arrow/040000.wav,NA,0,-27dB,Flat,G_2,1,0,1,0,0
F2024_10,stimuli/tones/silence.wav,1.25,19,noResp,NA,B_4,stimuli/Baron6dB/070003.wav,stimuli/Eagle/060201.wav,stimuli/Charlie/000101.wav,NA,1,silence,silence,B_4,1,0,0,1,0
F2024_10,stimuli/tones/PercTri-27dB.wav,2,20,space,3.8515,W_4,stimuli/Baron6dB/070303.wav,stimuli/Charlie/000203.wav,stimuli/Arrow/040300.wav,NA,1,-27dB,PercTri,G_4,0,1,0,0,0
F2024_10,stimuli/tones/silence.wav,2,21,noResp,NA,W_2,stimuli/Baron6dB/070201.wav,stimuli/Charlie/000201.wav,stimuli/Charlie/000203.wav,NA,1,silence,silence,W_2,1,0,0,1,0
F2024_10,stimuli/tones/PercTri-27dB.wav,0.75,22,space,2.8694,R_2,stimuli/Baron6dB/070101.wav,stimuli/Hopper/030002.wav,stimuli/Eagle/060201.wav,NA,1,-27dB,PercTri,R_2,1,1,0,0,0
F2024_10,stimuli/tones/PercTri-30dB.wav,2,23,space,3.2844,R_1,stimuli/Baron6dB/070100.wav,stimuli/Arrow/040102.wav,stimuli/Tiger/050101.wav,NA,1,-30dB,PercTri,R_1,1,1,0,0,0
F2024_10,stimuli/tones/PercTri-18dB.wav,2,24,space,4.2348,G_3,stimuli/Baron6dB/070302.wav,stimuli/Laker/020300.wav,stimuli/Eagle/060303.wav,NA,1,-18dB,PercTri,G_3,1,1,0,0,0
F2024_10,stimuli/tones/silence.wav,0.75,25,noResp,NA,W_4,stimuli/Baron6dB/070203.wav,stimuli/Ringo/010303.wav,stimuli/Eagle/060101.wav,NA,1,silence,silence,W_4,1,0,0,1,0
F2024_10,stimuli/tones/PercTri-18dB.wav,0.75,26,space,2.9452,W_3,stimuli/Baron6dB/070102.wav,stimuli/Arrow/040103.wav,stimuli/Tiger/050103.wav,NA,1,-18dB,PercTri,R_3,0,1,0,0,0
F2024_10,stimuli/tones/silence.wav,2,27,noResp,NA,B_2,stimuli/Baron6dB/070001.wav,stimuli/Laker/020303.wav,stimuli/Hopper/030102.wav,NA,1,silence,silence,B_2,1,0,0,1,0
F2024_10,stimuli/tones/silence.wav,0.75,28,noResp,NA,G_1,stimuli/Baron6dB/070300.wav,stimuli/Eagle/060101.wav,stimuli/Arrow/040202.wav,NA,1,silence,silence,G_1,1,0,0,1,0
F2024_10,stimuli/tones/silence.wav,0.75,29,noResp,NA,B_1,stimuli/Baron6dB/070000.wav,stimuli/Tiger/050303.wav,stimuli/Laker/020100.wav,NA,1,silence,silence,B_1,1,0,0,1,0
F2024_10,stimuli/tones/PercTri-18dB.wav,1.25,30,space,3.0681,B_3,stimuli/Baron6dB/070002.wav,stimuli/Ringo/010200.wav,stimuli/Laker/020300.wav,NA,1,-18dB,PercTri,B_3,1,1,0,0,0
F2024_10,stimuli/tones/silence.wav,1.25,31,noResp,NA,W_1,stimuli/Baron6dB/070200.wav,stimuli/Eagle/060200.wav,stimuli/Tiger/050102.wav,NA,1,silence,silence,W_1,1,0,0,1,0
F2024_10,stimuli/tones/silence.wav,1.25,32,noResp,NA,B_4,stimuli/Baron6dB/070003.wav,stimuli/Eagle/060002.wav,stimuli/Ringo/010203.wav,NA,1,silence,silence,B_4,1,0,0,1,0
F2024_10,stimuli/tones/silence.wav,2,33,noResp,NA,W_2,stimuli/Baron6dB/070201.wav,stimuli/Ringo/010002.wav,stimuli/Laker/020203.wav,NA,1,silence,silence,W_2,1,0,0,1,0
F2024_10,stimuli/tones/silence.wav,0.75,34,noResp,NA,R_1,stimuli/Baron6dB/070100.wav,stimuli/Laker/020201.wav,stimuli/Ringo/010003.wav,NA,1,silence,silence,R_1,1,0,0,1,0
F2024_10,stimuli/tones/PercTri-27dB.wav,0.75,35,space,2.7036,W_1,stimuli/Baron6dB/070200.wav,stimuli/Tiger/050302.wav,stimuli/Charlie/000201.wav,NA,1,-27dB,PercTri,W_1,1,1,0,0,0
F2024_10,stimuli/tones/PercTri-27dB.wav,0.75,36,space,2.6811,B_2,stimuli/Baron6dB/070001.wav,stimuli/Eagle/060102.wav,stimuli/Charlie/000202.wav,NA,1,-27dB,PercTri,B_2,1,1,0,0,0
F2024_10,stimuli/tones/silence.wav,1.25,37,noResp,NA,G_1,stimuli/Baron6dB/070300.wav,stimuli/Laker/020200.wav,stimuli/Arrow/040001.wav,NA,1,silence,silence,G_1,1,0,0,1,0
F2024_10,stimuli/tones/PercTri-30dB.wav,0.75,38,space,2.6165,B_1,stimuli/Baron6dB/070000.wav,stimuli/Laker/020101.wav,stimuli/Arrow/040002.wav,NA,1,-30dB,PercTri,B_1,1,1,0,0,0
F2024_10,stimuli/tones/FlatIEC-27dB.wav,1.25,39,space,3.4345,G_2,stimuli/Baron6dB/070301.wav,stimuli/Eagle/060300.wav,stimuli/Ringo/010302.wav,NA,1,-27dB,Flat,G_2,1,1,0,0,0
F2024_10,stimuli/tones/FlatIEC-30dB.wav,0.75,40,noResp,NA,R_4,stimuli/Baron6dB/070103.wav,stimuli/Ringo/010100.wav,stimuli/Arrow/040303.wav,NA,0,-30dB,Flat,R_4,1,0,1,0,0
F2024_10,stimuli/tones/FlatIEC-24dB.wav,0.75,41,noResp,NA,W_3,stimuli/Baron6dB/070202.wav,stimuli/Arrow/040301.wav,stimuli/Eagle/060202.wav,NA,0,-24dB,Flat,W_3,1,0,1,0,0
F2024_10,stimuli/tones/silence.wav,0.75,42,noResp,NA,W_3,stimuli/Baron6dB/070102.wav,stimuli/Arrow/040101.wav,stimuli/Ringo/010001.wav,NA,1,silence,silence,R_3,0,0,0,1,0
F2024_10,stimuli/tones/PercTri-18dB.wav,0.75,43,space,2.6506,B_3,stimuli/Baron6dB/070002.wav,stimuli/Tiger/050003.wav,stimuli/Hopper/030301.wav,NA,1,-18dB,PercTri,B_3,1,1,0,0,0
F2024_10,stimuli/tones/PercTri-27dB.wav,2,44,space,7.2103,W_1,stimuli/Baron6dB/070302.wav,stimuli/Hopper/030000.wav,stimuli/Eagle/060102.wav,NA,1,-27dB,PercTri,G_3,0,1,0,0,0
F2024_10,stimuli/tones/silence.wav,2,45,noResp,NA,W_4,stimuli/Baron6dB/070203.wav,stimuli/Arrow/040002.wav,stimuli/Charlie/000102.wav,NA,1,silence,silence,W_4,1,0,0,1,0
F2024_10,stimuli/tones/silence.wav,0.75,46,noResp,NA,R_2,stimuli/Baron6dB/070101.wav,stimuli/Eagle/060301.wav,stimuli/Charlie/000001.wav,NA,1,silence,silence,R_2,1,0,0,1,0
F2024_10,stimuli/tones/PercTri-24dB.wav,0.75,47,space,2.5918,W_4,stimuli/Baron6dB/070303.wav,stimuli/Arrow/040200.wav,stimuli/Laker/020202.wav,NA,1,-24dB,PercTri,G_4,0,1,0,0,0
F2024_10,stimuli/tones/silence.wav,0.75,48,noResp,NA,G_3,stimuli/Baron6dB/070302.wav,stimuli/Charlie/000301.wav,stimuli/Laker/020200.wav,NA,1,silence,silence,G_3,1,0,0,1,0
F2024_10,stimuli/tones/PercTri-24dB.wav,2,49,space,3.2996,W_3,stimuli/Baron6dB/070102.wav,stimuli/Arrow/040003.wav,stimuli/Charlie/000000.wav,NA,1,-24dB,PercTri,R_3,0,1,0,0,0
F2024_10,stimuli/tones/PercTri-33dB.wav,1.25,50,space,3.1764,B_2,stimuli/Baron6dB/070001.wav,stimuli/Hopper/030300.wav,stimuli/Hopper/030200.wav,NA,1,-33dB,PercTri,B_2,1,1,0,0,0
F2024_10,stimuli/tones/silence.wav,0.75,51,noResp,NA,R_4,stimuli/Baron6dB/070103.wav,stimuli/Hopper/030301.wav,stimuli/Hopper/030001.wav,NA,1,silence,silence,R_4,1,0,0,1,0
F2024_10,stimuli/tones/FlatIEC-24dB.wav,0.75,52,noResp,NA,W_1,stimuli/Baron6dB/070200.wav,stimuli/Charlie/000103.wav,stimuli/Hopper/030002.wav,NA,0,-24dB,Flat,W_1,1,0,1,0,0
F2024_10,stimuli/tones/silence.wav,1.25,53,noResp,NA,G_2,stimuli/Baron6dB/070301.wav,stimuli/Arrow/040303.wav,stimuli/Tiger/050303.wav,NA,1,silence,silence,G_2,1,0,0,1,0
F2024_10,stimuli/tones/PercTri-21dB.wav,0.75,54,space,2.9923,W_2,stimuli/Baron6dB/070201.wav,stimuli/Hopper/030100.wav,stimuli/Tiger/050302.wav,NA,1,-21dB,PercTri,W_2,1,1,0,0,0
F2024_10,stimuli/tones/FlatIEC-27dB.wav,0.75,55,noResp,NA,G_4,stimuli/Baron6dB/070303.wav,stimuli/Arrow/040203.wav,stimuli/Ringo/010300.wav,NA,0,-27dB,Flat,G_4,1,0,1,0,0
F2024_10,stimuli/tones/silence.wav,2,56,noResp,NA,R_1,stimuli/Baron6dB/070100.wav,stimuli/Hopper/030200.wav,stimuli/Laker/020000.wav,NA,1,silence,silence,R_1,1,0,0,1,0
F2024_10,stimuli/tones/silence.wav,0.75,57,noResp,NA,W_4,stimuli/Baron6dB/070203.wav,stimuli/Tiger/050103.wav,stimuli/Eagle/060300.wav,NA,1,silence,silence,W_4,1,0,0,1,0
F2024_10,stimuli/tones/PercTri-24dB.wav,1.25,58,space,2.8759,W_3,stimuli/Baron6dB/070202.wav,stimuli/Ringo/010202.wav,stimuli/Hopper/030203.wav,NA,1,-24dB,PercTri,W_3,1,1,0,0,0
F2024_10,stimuli/tones/silence.wav,1.25,59,noResp,NA,B_3,stimuli/Baron6dB/070002.wav,stimuli/Charlie/000000.wav,stimuli/Charlie/000200.wav,NA,1,silence,silence,B_3,1,0,0,1,0
F2024_10,stimuli/tones/silence.wav,1.25,60,noResp,NA,B_4,stimuli/Baron6dB/070003.wav,stimuli/Hopper/030303.wav,stimuli/Ringo/010102.wav,NA,1,silence,silence,B_4,1,0,0,1,0
F2024_10,stimuli/tones/PercTri-24dB.wav,1.25,61,space,2.6271,W_2,stimuli/Baron6dB/070101.wav,stimuli/Eagle/060203.wav,stimuli/Ringo/010103.wav,NA,1,-24dB,PercTri,R_2,0,1,0,0,0
F2024_10,stimuli/tones/FlatIEC-30dB.wav,0.75,62,noResp,NA,G_1,stimuli/Baron6dB/070300.wav,stimuli/Eagle/060003.wav,stimuli/Tiger/050003.wav,NA,0,-30dB,Flat,G_1,1,0,1,0,0
F2024_10,stimuli/tones/silence.wav,0.75,63,noResp,NA,B_1,stimuli/Baron6dB/070000.wav,stimuli/Tiger/050002.wav,stimuli/Eagle/060103.wav,NA,1,silence,silence,B_1,1,0,0,1,0
F2024_10,stimuli/tones/silence.wav,2,64,noResp,NA,B_3,stimuli/Baron6dB/070002.wav,stimuli/Charlie/000003.wav,stimuli/Arrow/040203.wav,NA,1,silence,silence,B_3,1,0,0,1,0
F2024_10,stimuli/tones/PercTri-18dB.wav,1.25,65,space,3.3004,G_3,stimuli/Baron6dB/070302.wav,stimuli/Ringo/010003.wav,stimuli/Ringo/010201.wav,NA,1,-18dB,PercTri,G_3,1,1,0,0,0
F2024_10,stimuli/tones/FlatIEC-18dB.wav,0.75,66,noResp,NA,B_2,stimuli/Baron6dB/070001.wav,stimuli/Tiger/050102.wav,stimuli/Hopper/030100.wav,NA,0,-18dB,Flat,B_2,1,0,1,0,0
F2024_10,stimuli/tones/FlatIEC-18dB.wav,1.25,67,space,3.0919,W_4,stimuli/Baron6dB/070203.wav,stimuli/Eagle/060202.wav,stimuli/Laker/020001.wav,NA,1,-18dB,Flat,W_4,1,1,0,0,0
F2024_10,stimuli/tones/PercTri-24dB.wav,2,68,space,3.2666,R_4,stimuli/Baron6dB/070103.wav,stimuli/Charlie/000101.wav,stimuli/Arrow/040100.wav,NA,1,-24dB,PercTri,R_4,1,1,0,0,0
F2024_10,stimuli/tones/silence.wav,1.25,69,noResp,NA,W_2,stimuli/Baron6dB/070201.wav,stimuli/Ringo/010102.wav,stimuli/Eagle/060000.wav,NA,1,silence,silence,W_2,1,0,0,1,0
F2024_10,stimuli/tones/silence.wav,0.75,70,noResp,NA,G_2,stimuli/Baron6dB/070301.wav,stimuli/Charlie/000001.wav,stimuli/Ringo/010000.wav,NA,1,silence,silence,G_2,1,0,0,1,0
F2024_10,stimuli/tones/FlatIEC-30dB.wav,2,71,space,3.5084,B_1,stimuli/Baron6dB/070000.wav,stimuli/Laker/020002.wav,stimuli/Charlie/000302.wav,NA,1,-30dB,Flat,B_1,1,1,0,0,0
F2024_10,stimuli/tones/silence.wav,1.25,72,noResp,NA,R_1,stimuli/Baron6dB/070100.wav,stimuli/Eagle/060103.wav,stimuli/Eagle/060002.wav,NA,1,silence,silence,R_1,1,0,0,1,0
F2024_10,stimuli/tones/silence.wav,2,73,noResp,NA,R_3,stimuli/Baron6dB/070102.wav,stimuli/Hopper/030103.wav,stimuli/Ringo/010301.wav,NA,1,silence,silence,R_3,1,0,0,1,0
F2024_10,stimuli/tones/silence.wav,0.75,74,noResp,NA,W_3,stimuli/Baron6dB/070202.wav,stimuli/Ringo/010302.wav,stimuli/Arrow/040302.wav,NA,1,silence,silence,W_3,1,0,0,1,0
F2024_10,stimuli/tones/silence.wav,0.75,75,noResp,NA,B_4,stimuli/Baron6dB/070003.wav,stimuli/Ringo/010301.wav,stimuli/Arrow/040103.wav,NA,1,silence,silence,B_4,1,0,0,1,0
F2024_10,stimuli/tones/silence.wav,1.25,76,noResp,NA,G_1,stimuli/Baron6dB/070300.wav,stimuli/Charlie/000303.wav,stimuli/Charlie/000301.wav,NA,1,silence,silence,G_1,1,0,0,1,0
F2024_10,stimuli/tones/PercTri-30dB.wav,0.75,77,space,2.5259,R_2,stimuli/Baron6dB/070101.wav,stimuli/Ringo/010000.wav,stimuli/Charlie/000003.wav,NA,1,-30dB,PercTri,R_2,1,1,0,0,0
F2024_10,stimuli/tones/PercTri-33dB.wav,0.75,78,space,2.9765,G_4,stimuli/Baron6dB/070303.wav,stimuli/Hopper/030001.wav,stimuli/Charlie/000002.wav,NA,1,-33dB,PercTri,G_4,1,1,0,0,0
F2024_10,stimuli/tones/silence.wav,2,79,noResp,NA,W_1,stimuli/Baron6dB/070200.wav,stimuli/Charlie/000002.wav,stimuli/Tiger/050300.wav,NA,1,silence,silence,W_1,1,0,0,1,0
F2024_10,stimuli/tones/FlatIEC-18dB.wav,0.75,80,space,2.7322,W_4,stimuli/Baron6dB/070203.wav,stimuli/Arrow/040302.wav,stimuli/Laker/020003.wav,NA,1,-18dB,Flat,W_4,1,1,0,0,0
F2024_10,stimuli/tones/silence.wav,1.25,81,noResp,NA,G_4,stimuli/Baron6dB/070303.wav,stimuli/Charlie/000200.wav,stimuli/Arrow/040301.wav,NA,1,silence,silence,G_4,1,0,0,1,0
F2024_10,stimuli/tones/silence.wav,1.25,82,noResp,NA,W_2,stimuli/Baron6dB/070101.wav,stimuli/Hopper/030003.wav,stimuli/Arrow/040200.wav,NA,1,silence,silence,R_2,0,0,0,1,0
F2024_10,stimuli/tones/FlatIEC-21dB.wav,2,83,space,4.0253,G_2,stimuli/Baron6dB/070301.wav,stimuli/Tiger/050203.wav,stimuli/Tiger/050002.wav,NA,1,-21dB,Flat,G_2,1,1,0,0,0
F2024_10,stimuli/tones/silence.wav,2,84,noResp,NA,W_1,stimuli/Baron6dB/070200.wav,stimuli/Ringo/010001.wav,stimuli/Tiger/050001.wav,NA,1,silence,silence,W_1,1,0,0,1,0
F2024_10,stimuli/tones/silence.wav,1.25,85,noResp,NA,G_3,stimuli/Baron6dB/070302.wav,stimuli/Laker/020001.wav,stimuli/Laker/020002.wav,NA,1,silence,silence,G_3,1,0,0,1,0
F2024_10,stimuli/tones/silence.wav,1.25,86,noResp,NA,R_4,stimuli/Baron6dB/070103.wav,stimuli/Arrow/040300.wav,stimuli/Hopper/030303.wav,NA,1,silence,silence,R_4,1,0,0,1,0
F2024_10,stimuli/tones/FlatIEC-18dB.wav,2,87,space,3.3257,R_3,stimuli/Baron6dB/070102.wav,stimuli/Hopper/030201.wav,stimuli/Charlie/000103.wav,NA,1,-18dB,Flat,R_3,1,1,0,0,0
F2024_10,stimuli/tones/PercTri-18dB.wav,2,88,space,3.0934,B_4,stimuli/Baron6dB/070003.wav,stimuli/Charlie/000100.wav,stimuli/Tiger/050202.wav,NA,1,-18dB,PercTri,B_4,1,1,0,0,0
F2024_10,stimuli/tones/silence.wav,2,89,noResp,NA,W_3,stimuli/Baron6dB/070202.wav,stimuli/Tiger/050301.wav,stimuli/Tiger/050200.wav,NA,1,silence,silence,W_3,1,0,0,1,0
F2024_10,stimuli/tones/FlatIEC-33dB.wav,0.75,90,noResp,NA,W_2,stimuli/Baron6dB/070201.wav,stimuli/Charlie/000302.wav,stimuli/Eagle/060203.wav,NA,0,-33dB,Flat,W_2,1,0,1,0,0
F2024_10,stimuli/tones/silence.wav,0.75,91,noResp,NA,W_1,stimuli/Baron6dB/070100.wav,stimuli/Laker/020100.wav,stimuli/Arrow/040101.wav,NA,1,silence,silence,R_1,0,0,0,1,0
F2024_10,stimuli/tones/FlatIEC-33dB.wav,2,92,space,3.7112,G_1,stimuli/Baron6dB/070300.wav,stimuli/Eagle/060100.wav,stimuli/Ringo/010100.wav,NA,1,-33dB,Flat,G_1,1,1,0,0,0
F2024_10,stimuli/tones/FlatIEC-30dB.wav,1.25,93,space,3.62,B_2,stimuli/Baron6dB/070001.wav,stimuli/Ringo/010300.wav,stimuli/Tiger/050301.wav,NA,1,-30dB,Flat,B_2,1,1,0,0,0
F2024_10,stimuli/tones/PercTri-33dB.wav,1.25,94,space,2.9288,B_1,stimuli/Baron6dB/070000.wav,stimuli/Laker/020202.wav,stimuli/Arrow/040201.wav,NA,1,-33dB,PercTri,B_1,1,1,0,0,0
F2024_10,stimuli/tones/silence.wav,2,95,noResp,NA,B_3,stimuli/Baron6dB/070002.wav,stimuli/Laker/020203.wav,stimuli/Hopper/030103.wav,NA,1,silence,silence,B_3,1,0,0,1,0
F2024_10,stimuli/tones/silence.wav,0.75,96,noResp,NA,W_1,stimuli/Baron6dB/070200.wav,stimuli/Laker/020302.wav,stimuli/Charlie/000100.wav,NA,1,silence,silence,W_1,1,0,0,1,0
F2024_10,stimuli/tones/PercTri-33dB.wav,1.25,97,space,2.9516,W_3,stimuli/Baron6dB/070202.wav,stimuli/Tiger/050200.wav,stimuli/Ringo/010303.wav,NA,1,-33dB,PercTri,W_3,1,1,0,0,0
F2024_10,stimuli/tones/PercTri-33dB.wav,2,98,space,3.0939,B_2,stimuli/Baron6dB/070001.wav,stimuli/Charlie/000300.wav,stimuli/Laker/020101.wav,NA,1,-33dB,PercTri,B_2,1,1,0,0,0
F2024_10,stimuli/tones/FlatIEC-21dB.wav,1.25,99,space,3.0977,G_2,stimuli/Baron6dB/070301.wav,stimuli/Hopper/030202.wav,stimuli/Laker/020201.wav,NA,1,-21dB,Flat,G_2,1,1,0,0,0
F2024_10,stimuli/tones/silence.wav,0.75,100,noResp,NA,W_4,stimuli/Baron6dB/070203.wav,stimuli/Eagle/060001.wav,stimuli/Hopper/030300.wav,NA,1,silence,silence,W_4,1,0,0,1,0
F2024_10,stimuli/tones/silence.wav,2,101,noResp,NA,R_2,stimuli/Baron6dB/070101.wav,stimuli/Laker/020003.wav,stimuli/Hopper/030003.wav,NA,1,silence,silence,R_2,1,0,0,1,0
F2024_10,stimuli/tones/PercTri-30dB.wav,0.75,102,space,3.0099,G_4,stimuli/Baron6dB/070303.wav,stimuli/Tiger/050000.wav,stimuli/Charlie/000303.wav,NA,1,-30dB,PercTri,G_4,1,1,0,0,0
F2024_10,stimuli/tones/PercTri-33dB.wav,2,103,space,3.133,R_4,stimuli/Baron6dB/070103.wav,stimuli/Hopper/030101.wav,stimuli/Laker/020301.wav,NA,1,-33dB,PercTri,R_4,1,1,0,0,0
F2024_10,stimuli/tones/silence.wav,0.75,104,noResp,NA,B_3,stimuli/Baron6dB/070002.wav,stimuli/Eagle/060000.wav,stimuli/Ringo/010002.wav,NA,1,silence,silence,B_3,1,0,0,1,0
F2024_10,stimuli/tones/PercTri-30dB.wav,2,105,space,3.4178,G_1,stimuli/Baron6dB/070300.wav,stimuli/Ringo/010101.wav,stimuli/Tiger/050201.wav,NA,1,-30dB,PercTri,G_1,1,1,0,0,0
F2024_10,stimuli/tones/PercTri-27dB.wav,1.25,106,space,3.4328,W_3,stimuli/Baron6dB/070102.wav,stimuli/Ringo/010103.wav,stimuli/Arrow/040003.wav,NA,1,-27dB,PercTri,R_3,0,1,0,0,0
F2024_10,stimuli/tones/FlatIEC-33dB.wav,2,107,space,3.6523,R_1,stimuli/Baron6dB/070100.wav,stimuli/Arrow/040001.wav,stimuli/Eagle/060200.wav,NA,1,-33dB,Flat,R_1,1,1,0,0,0
F2024_10,stimuli/tones/silence.wav,2,108,noResp,NA,B_4,stimuli/Baron6dB/070003.wav,stimuli/Hopper/030102.wav,stimuli/Laker/020302.wav,NA,1,silence,silence,B_4,1,0,0,1,0
F2024_10,stimuli/tones/FlatIEC-33dB.wav,1.25,109,noResp,NA,W_2,stimuli/Baron6dB/070201.wav,stimuli/Laker/020000.wav,stimuli/Laker/020103.wav,NA,0,-33dB,Flat,W_2,1,0,1,0,0
F2024_10,stimuli/tones/silence.wav,1.25,110,noResp,NA,G_3,stimuli/Baron6dB/070302.wav,stimuli/Tiger/050101.wav,stimuli/Tiger/050203.wav,NA,1,silence,silence,G_3,1,0,0,1,0
F2024_10,stimuli/tones/FlatIEC-27dB.wav,1.25,111,space,3.2506,B_1,stimuli/Baron6dB/070000.wav,stimuli/Laker/020103.wav,stimuli/Eagle/060302.wav,NA,1,-27dB,Flat,B_1,1,1,0,0,0
F2024_10,stimuli/tones/PercTri-21dB.wav,0.75,112,space,2.7935,G_2,stimuli/Baron6dB/070301.wav,stimuli/Charlie/000003.wav,stimuli/Laker/020202.wav,NA,1,-21dB,PercTri,G_2,1,1,0,0,0
F2024_10,stimuli/tones/silence.wav,2,113,noResp,NA,B_2,stimuli/Baron6dB/070001.wav,stimuli/Laker/020200.wav,stimuli/Eagle/060003.wav,NA,1,silence,silence,B_2,1,0,0,1,0
F2024_10,stimuli/tones/silence.wav,0.75,114,noResp,NA,G_4,stimuli/Baron6dB/070303.wav,stimuli/Laker/020000.wav,stimuli/Hopper/030200.wav,NA,1,silence,silence,G_4,1,0,0,1,0
F2024_10,stimuli/tones/silence.wav,1.25,115,noResp,NA,B_4,stimuli/Baron6dB/070003.wav,stimuli/Ringo/010200.wav,stimuli/Arrow/040202.wav,NA,1,silence,silence,B_4,1,0,0,1,0
F2024_10,stimuli/tones/silence.wav,0.75,116,noResp,NA,B_1,stimuli/Baron6dB/070000.wav,stimuli/Arrow/040203.wav,stimuli/Charlie/000303.wav,NA,1,silence,silence,B_1,1,0,0,1,0
F2024_10,stimuli/tones/FlatIEC-24dB.wav,1.25,117,space,3.2667,W_1,stimuli/Baron6dB/070200.wav,stimuli/Hopper/030002.wav,stimuli/Tiger/050001.wav,NA,1,-24dB,Flat,W_1,1,1,0,0,0
F2024_10,stimuli/tones/silence.wav,2,118,noResp,NA,R_4,stimuli/Baron6dB/070103.wav,stimuli/Tiger/050003.wav,stimuli/Eagle/060101.wav,NA,1,silence,silence,R_4,1,0,0,1,0
F2024_10,stimuli/tones/FlatIEC-30dB.wav,0.75,119,noResp,NA,R_3,stimuli/Baron6dB/070102.wav,stimuli/Arrow/040003.wav,stimuli/Laker/020201.wav,NA,0,-30dB,Flat,R_3,1,0,1,0,0
F2024_10,stimuli/tones/FlatIEC-27dB.wav,2,120,space,3.4686,W_2,stimuli/Baron6dB/070201.wav,stimuli/Charlie/000101.wav,stimuli/Ringo/010102.wav,NA,1,-27dB,Flat,W_2,1,1,0,0,0
F2024_10,stimuli/tones/PercTri-18dB.wav,1.25,121,space,3.2377,G_1,stimuli/Baron6dB/070100.wav,stimuli/Arrow/040103.wav,stimuli/Charlie/000200.wav,NA,1,-18dB,PercTri,R_1,0,1,0,0,0
F2024_10,stimuli/tones/silence.wav,0.75,122,noResp,NA,G_3,stimuli/Baron6dB/070302.wav,stimuli/Charlie/000001.wav,stimuli/Ringo/010201.wav,NA,1,silence,silence,G_3,1,0,0,1,0
F2024_10,stimuli/tones/FlatIEC-30dB.wav,2,123,space,3.6513,W_3,stimuli/Baron6dB/070202.wav,stimuli/Hopper/030303.wav,stimuli/Eagle/060001.wav,NA,1,-30dB,Flat,W_3,1,1,0,0,0
F2024_10,stimuli/tones/silence.wav,2,124,noResp,NA,W_2,stimuli/Baron6dB/070101.wav,stimuli/Tiger/050203.wav,stimuli/Ringo/010303.wav,NA,1,silence,silence,R_2,0,0,0,1,0
F2024_10,stimuli/tones/silence.wav,2,125,noResp,NA,B_3,stimuli/Baron6dB/070002.wav,stimuli/Ringo/010101.wav,stimuli/Eagle/060002.wav,NA,1,silence,silence,B_3,1,0,0,1,0
F2024_10,stimuli/tones/silence.wav,2,126,noResp,NA,G_4,stimuli/Baron6dB/070203.wav,stimuli/Charlie/000002.wav,stimuli/Eagle/060202.wav,NA,1,silence,silence,W_4,0,0,0,1,0
F2024_10,stimuli/tones/silence.wav,0.75,127,noResp,NA,G_1,stimuli/Baron6dB/070300.wav,stimuli/Charlie/000300.wav,stimuli/Laker/020002.wav,NA,1,silence,silence,G_1,1,0,0,1,0
F2024_10,stimuli/tones/silence.wav,2,128,noResp,NA,R_1,stimuli/Baron6dB/070100.wav,stimuli/Tiger/050102.wav,stimuli/Charlie/000300.wav,NA,1,silence,silence,R_1,1,0,0,1,0
F2024_10,stimuli/tones/silence.wav,0.75,129,noResp,NA,W_1,stimuli/Baron6dB/070200.wav,stimuli/Laker/020102.wav,stimuli/Arrow/040201.wav,NA,1,silence,silence,W_1,1,0,0,1,0
F2024_10,stimuli/tones/FlatIEC-21dB.wav,1.25,130,space,3.2677,B_1,stimuli/Baron6dB/070000.wav,stimuli/Hopper/030001.wav,stimuli/Charlie/000001.wav,NA,1,-21dB,Flat,B_1,1,1,0,0,0
F2024_10,stimuli/tones/FlatIEC-24dB.wav,2,131,space,3.3591,R_3,stimuli/Baron6dB/070102.wav,stimuli/Hopper/030202.wav,stimuli/Arrow/040303.wav,NA,1,-24dB,Flat,R_3,1,1,0,0,0
F2024_10,stimuli/tones/silence.wav,0.75,132,noResp,NA,B_3,stimuli/Baron6dB/070002.wav,stimuli/Hopper/030100.wav,stimuli/Tiger/050202.wav,NA,1,silence,silence,B_3,1,0,0,1,0
F2024_10,stimuli/tones/silence.wav,0.75,133,noResp,NA,W_2,stimuli/Baron6dB/070201.wav,stimuli/Hopper/030302.wav,stimuli/Eagle/060302.wav,NA,1,silence,silence,W_2,1,0,0,1,0
F2024_10,stimuli/tones/silence.wav,1.25,134,noResp,NA,B_4,stimuli/Baron6dB/070003.wav,stimuli/Arrow/040002.wav,stimuli/Ringo/010103.wav,NA,1,silence,silence,B_4,1,0,0,1,0
F2024_10,stimuli/tones/FlatIEC-24dB.wav,2,135,space,3.3088,W_4,stimuli/Baron6dB/070203.wav,stimuli/Charlie/000000.wav,stimuli/Tiger/050000.wav,NA,1,-24dB,Flat,W_4,1,1,0,0,0
F2024_10,stimuli/tones/silence.wav,0.75,136,noResp,NA,G_1,stimuli/Baron6dB/070300.wav,stimuli/Eagle/060302.wav,stimuli/Eagle/060203.wav,NA,1,silence,silence,G_1,1,0,0,1,0
F2024_10,stimuli/tones/silence.wav,0.75,137,noResp,NA,W_3,stimuli/Baron6dB/070202.wav,stimuli/Laker/020001.wav,stimuli/Arrow/040103.wav,NA,1,silence,silence,W_3,1,0,0,1,0
F2024_10,stimuli/tones/PercTri-24dB.wav,2,138,space,3.3093,W_4,stimuli/Baron6dB/070103.wav,stimuli/Arrow/040101.wav,stimuli/Arrow/040203.wav,NA,1,-24dB,PercTri,R_4,0,1,0,0,0
F2024_10,stimuli/tones/FlatIEC-30dB.wav,2,139,noResp,NA,G_2,stimuli/Baron6dB/070301.wav,stimuli/Arrow/040202.wav,stimuli/Ringo/010203.wav,NA,0,-30dB,Flat,G_2,1,0,1,0,0
F2024_10,stimuli/tones/silence.wav,0.75,140,noResp,NA,G_3,stimuli/Baron6dB/070302.wav,stimuli/Hopper/030201.wav,stimuli/Hopper/030001.wav,NA,1,silence,silence,G_3,1,0,0,1,0
F2024_10,stimuli/tones/FlatIEC-21dB.wav,0.75,141,noResp,NA,W_2,stimuli/Baron6dB/070101.wav,stimuli/Ringo/010102.wav,stimuli/Laker/020100.wav,NA,0,-21dB,Flat,R_2,0,0,1,0,0
F2024_10,stimuli/tones/FlatIEC-18dB.wav,2,142,space,2.827,G_4,stimuli/Baron6dB/070303.wav,stimuli/Charlie/000103.wav,stimuli/Tiger/050200.wav,NA,1,-18dB,Flat,G_4,1,1,0,0,0
F2024_10,stimuli/tones/silence.wav,1.25,143,noResp,NA,B_2,stimuli/Baron6dB/070001.wav,stimuli/Laker/020202.wav,stimuli/Ringo/010200.wav,NA,1,silence,silence,B_2,1,0,0,1,0
F2024_10,stimuli/tones/FlatIEC-33dB.wav,0.75,144,noResp,NA,G_1,stimuli/Baron6dB/070300.wav,stimuli/Arrow/040301.wav,stimuli/Hopper/030203.wav,NA,0,-33dB,Flat,G_1,1,0,1,0,0
F2024_10,stimuli/tones/silence.wav,0.75,145,noResp,NA,W_4,stimuli/Baron6dB/070203.wav,stimuli/Laker/020003.wav,stimuli/Charlie/000103.wav,NA,1,silence,silence,W_4,1,0,0,1,0
F2024_10,stimuli/tones/silence.wav,0.75,146,noResp,NA,G_4,stimuli/Baron6dB/070303.wav,stimuli/Arrow/040303.wav,stimuli/Ringo/010100.wav,NA,1,silence,silence,G_4,1,0,0,1,0
F2024_10,stimuli/tones/silence.wav,2,147,noResp,NA,W_1,stimuli/Baron6dB/070200.wav,stimuli/Charlie/000100.wav,stimuli/Hopper/030100.wav,NA,1,silence,silence,W_1,1,0,0,1,0
F2024_10,stimuli/tones/silence.wav,1.25,148,noResp,NA,W_3,stimuli/Baron6dB/070102.wav,stimuli/Ringo/010203.wav,stimuli/Charlie/000301.wav,NA,1,silence,silence,R_3,0,0,0,1,0
F2024_10,stimuli/tones/silence.wav,1.25,149,noResp,NA,G_2,stimuli/Baron6dB/070301.wav,stimuli/Ringo/010300.wav,stimuli/Hopper/030000.wav,NA,1,silence,silence,G_2,1,0,0,1,0
F2024_10,stimuli/tones/PercTri-33dB.wav,0.75,150,space,2.8096,B_1,stimuli/Baron6dB/070000.wav,stimuli/Tiger/050101.wav,stimuli/Tiger/050003.wav,NA,1,-33dB,PercTri,B_1,1,1,0,0,0
F2024_10,stimuli/tones/FlatIEC-21dB.wav,0.75,151,space,3.2662,W_3,stimuli/Baron6dB/070202.wav,stimuli/Laker/020300.wav,stimuli/Tiger/050300.wav,NA,1,-21dB,Flat,W_3,1,1,0,0,0
F2024_10,stimuli/tones/FlatIEC-30dB.wav,1.25,152,noResp,NA,W_2,stimuli/Baron6dB/070201.wav,stimuli/Eagle/060301.wav,stimuli/Tiger/050303.wav,NA,0,-30dB,Flat,W_2,1,0,1,0,0
F2024_10,stimuli/tones/PercTri-21dB.wav,2,153,space,3.6089,R_1,stimuli/Baron6dB/070100.wav,stimuli/Tiger/050303.wav,stimuli/Arrow/040003.wav,NA,1,-21dB,PercTri,R_1,1,1,0,0,0
