participant,tone,tone_onset,loop.thisN,key_resp_5.keys,key_resp_5.rt,mouseClick_5.clicked_name,thisA,thisB,thisC,typePrompt,cor,snr,env,CRMcorrect,CRMhit,hit,miss,cr,fa
F2024_1,stimuli/tones/silence.wav,2,0,noResp,NA,G_4,stimuli/Baron6dB/070303.wav,stimuli/Tiger/050300.wav,stimuli/Tiger/050202.wav,NA,1,silence,silence,G_4,1,0,0,1,0
F2024_1,stimuli/tones/silence.wav,2,1,noResp,NA,W_2,stimuli/Baron6dB/070201.wav,stimuli/Ringo/010003.wav,stimuli/Eagle/060000.wav,NA,1,silence,silence,W_2,1,0,0,1,0
F2024_1,stimuli/tones/PercTri-24dB.wav,1.25,2,noResp,NA,B_1,stimuli/Baron6dB/070000.wav,stimuli/Hopper/030302.wav,stimuli/Eagle/060003.wav,NA,0,-24dB,PercTri,B_1,1,0,1,0,0
F2024_1,stimuli/tones/FlatIEC-27dB.wav,1.25,3,noResp,NA,G_2,stimuli/Baron6dB/070301.wav,stimuli/Charlie/000201.wav,stimuli/Charlie/000303.wav,NA,0,-27dB,Flat,G_2,1,0,1,0,0
F2024_1,stimuli/tones/silence.wav,2,4,noResp,NA,R_3,stimuli/Baron6dB/070102.wav,stimuli/Charlie/000302.wav,stimuli/Tiger/050003.wav,NA,1,silence,silence,R_3,1,0,0,1,0
F2024_1,stimuli/tones/silence.wav,1.25,5,noResp,NA,B_2,stimuli/Baron6dB/070001.wav,stimuli/Arrow/040002.wav,stimuli/Tiger/050001.wav,NA,1,silence,silence,B_2,1,0,0,1,0
F2024_1,stimuli/tones/silence.wav,2,6,noResp,NA,W_2,stimuli/Baron6dB/070101.wav,stimuli/Laker/020200.wav,stimuli/Tiger/050103.wav,NA,1,silence,silence,R_2,0,0,0,1,0
F2024_1,stimuli/tones/silence.wav,1.25,7,noResp,NA,B_3,stimuli/Baron6dB/070002.wav,stimuli/Tiger/050201.wav,stimuli/Ringo/010201.wav,NA,1,silence,silence,B_3,1,0,0,1,0
F2024_1,stimuli/tones/silence.wav,1.25,8,noResp,NA,G_1,stimuli/Baron6dB/070300.wav,stimuli/Charlie/000200.wav,stimuli/Eagle/060203.wav,NA,1,silence,silence,G_1,1,0,0,1,0
F2024_1,stimuli/tones/silence.wav,1.25,9,noResp,NA,W_3,stimuli/Baron6dB/070202.wav,stimuli/Ringo/010301.wav,stimuli/Laker/020302.wav,NA,1,silence,silence,W_3,1,0,0,1,0
F2024_1,stimuli/tones/silence.wav,0.75,10,noResp,NA,W_4,stimuli/Baron6dB/070203.wav,stimuli/Hopper/030101.wav,stimuli/Eagle/060302.wav,NA,1,silence,silence,W_4,1,0,0,1,0
F2024_1,stimuli/tones/PercTri-27dB.wav,1.25,11,noResp,NA,G_3,stimuli/Baron6dB/070302.wav,stimuli/Ringo/010001.wav,stimuli/Eagle/060102.wav,NA,0,-27dB,PercTri,G_3,1,0,1,0,0
F2024_1,stimuli/tones/FlatIEC-33dB.wav,2,12,space,3.6269,W_1,stimuli/Baron6dB/070200.wav,stimuli/Eagle/060200.wav,stimuli/Arrow/040001.wav,NA,1,-33dB,Flat,W_1,1,1,0,0,0
F2024_1,stimuli/tones/PercTri-33dB.wav,2,13,noResp,NA,R_4,stimuli/Baron6dB/070103.wav,stimuli/Arrow/040103.wav,stimuli/Charlie/000300.wav,NA,0,-33dB,PercTri,R_4,1,0,1,0,0
F2024_1,stimuli/tones/silence.wav,2,14,noResp,NA,R_1,stimuli/Baron6dB/070100.wav,stimuli/Tiger/050202.wav,stimuli/Hopper/030100.wav,NA,1,silence,silence,R_1,1,0,0,1,0
F2024_1,stimuli/tones/silence.wav,1.25,15,noResp,NA,B_4,stimuli/Baron6dB/070003.wav,stimuli/Laker/020300.wav,stimuli/Eagle/060303.wav,NA,1,silence,silence,B_4,1,0,0,1,0
F2024_1,stimuli/tones/PercTri-24dB.wav,0.75,16,noResp,NA,B_1,stimuli/Baron6dB/070000.wav,stimuli/Laker/020301.wav,stimuli/Ringo/010202.wav,NA,0,-24dB,PercTri,B_1,1,0,1,0,0
F2024_1,stimuli/tones/FlatIEC-18dB.wav,0.75,17,space,3.693,W_3,stimuli/Baron6dB/070202.wav,stimuli/Tiger/050301.wav,stimuli/Eagle/060002.wav,NA,1,-18dB,Flat,W_3,1,1,0,0,0
F2024_1,stimuli/tones/PercTri-18dB.wav,2,18,noResp,NA,W_4,stimuli/Baron6dB/070203.wav,stimuli/Arrow/040001.wav,stimuli/Charlie/000202.wav,NA,0,-18dB,PercTri,W_4,1,0,1,0,0
F2024_1,stimuli/tones/PercTri-21dB.wav,0.75,19,noResp,NA,R_3,stimuli/Baron6dB/070102.wav,stimuli/Tiger/050001.wav,stimuli/Arrow/040102.wav,NA,0,-21dB,PercTri,R_3,1,0,1,0,0
F2024_1,stimuli/tones/silence.wav,1.25,20,noResp,NA,G_2,stimuli/Baron6dB/070301.wav,stimuli/Laker/020202.wav,stimuli/Ringo/010300.wav,NA,1,silence,silence,G_2,1,0,0,1,0
F2024_1,stimuli/tones/silence.wav,2,21,noResp,NA,R_2,stimuli/Baron6dB/070101.wav,stimuli/Ringo/010102.wav,stimuli/Eagle/060301.wav,NA,1,silence,silence,R_2,1,0,0,1,0
F2024_1,stimuli/tones/PercTri-33dB.wav,1.25,22,space,3.4155,B_3,stimuli/Baron6dB/070002.wav,stimuli/Tiger/050101.wav,stimuli/Arrow/040202.wav,NA,1,-33dB,PercTri,B_3,1,1,0,0,0
F2024_1,stimuli/tones/silence.wav,0.75,23,noResp,NA,W_2,stimuli/Baron6dB/070201.wav,stimuli/Eagle/060202.wav,stimuli/Ringo/010200.wav,NA,1,silence,silence,W_2,1,0,0,1,0
F2024_1,stimuli/tones/FlatIEC-30dB.wav,0.75,24,noResp,NA,G_4,stimuli/Baron6dB/070303.wav,stimuli/Charlie/000203.wav,stimuli/Laker/020000.wav,NA,0,-30dB,Flat,G_4,1,0,1,0,0
F2024_1,stimuli/tones/silence.wav,0.75,25,noResp,NA,R_4,stimuli/Baron6dB/070103.wav,stimuli/Arrow/040000.wav,stimuli/Hopper/030303.wav,NA,1,silence,silence,R_4,1,0,0,1,0
F2024_1,stimuli/tones/PercTri-33dB.wav,0.75,26,noResp,NA,B_2,stimuli/Baron6dB/070001.wav,stimuli/Ringo/010201.wav,stimuli/Charlie/000301.wav,NA,0,-33dB,PercTri,B_2,1,0,1,0,0
F2024_1,stimuli/tones/FlatIEC-21dB.wav,2,27,space,4.3096,B_4,stimuli/Baron6dB/070003.wav,stimuli/Ringo/010302.wav,stimuli/Eagle/060201.wav,NA,1,-21dB,Flat,B_4,1,1,0,0,0
F2024_1,stimuli/tones/silence.wav,0.75,28,noResp,NA,G_1,stimuli/Baron6dB/070300.wav,stimuli/Eagle/060103.wav,stimuli/Laker/020203.wav,NA,1,silence,silence,G_1,1,0,0,1,0
F2024_1,stimuli/tones/FlatIEC-27dB.wav,0.75,29,noResp,NA,R_1,stimuli/Baron6dB/070100.wav,stimuli/Laker/020303.wav,stimuli/Charlie/000203.wav,NA,0,-27dB,Flat,R_1,1,0,1,0,0
F2024_1,stimuli/tones/FlatIEC-30dB.wav,0.75,30,noResp,NA,G_3,stimuli/Baron6dB/070302.wav,stimuli/Charlie/000102.wav,stimuli/Laker/020103.wav,NA,0,-30dB,Flat,G_3,1,0,1,0,0
F2024_1,stimuli/tones/silence.wav,2,31,space,2.5621,W_1,stimuli/Baron6dB/070200.wav,stimuli/Laker/020302.wav,stimuli/Arrow/040200.wav,NA,0,silence,silence,W_1,1,0,0,0,1
F2024_1,stimuli/tones/PercTri-21dB.wav,1.25,32,noResp,NA,R_1,stimuli/Baron6dB/070100.wav,stimuli/Tiger/050203.wav,stimuli/Hopper/030300.wav,NA,0,-21dB,PercTri,R_1,1,0,1,0,0
F2024_1,stimuli/tones/silence.wav,0.75,33,noResp,NA,B_3,stimuli/Baron6dB/070002.wav,stimuli/Eagle/060100.wav,stimuli/Hopper/030201.wav,NA,1,silence,silence,B_3,1,0,0,1,0
F2024_1,stimuli/tones/silence.wav,0.75,34,noResp,NA,W_2,stimuli/Baron6dB/070101.wav,stimuli/Charlie/000103.wav,stimuli/Charlie/000103.wav,NA,1,silence,silence,R_2,0,0,0,1,0
F2024_1,stimuli/tones/silence.wav,0.75,35,noResp,NA,B_4,stimuli/Baron6dB/070003.wav,stimuli/Ringo/010101.wav,stimuli/Ringo/010003.wav,NA,1,silence,silence,B_4,1,0,0,1,0
F2024_1,stimuli/tones/FlatIEC-18dB.wav,2,36,space,4.0332,R_3,stimuli/Baron6dB/070102.wav,stimuli/Eagle/060201.wav,stimuli/Arrow/040103.wav,NA,1,-18dB,Flat,R_3,1,1,0,0,0
F2024_1,stimuli/tones/silence.wav,1.25,37,noResp,NA,W_1,stimuli/Baron6dB/070200.wav,stimuli/Eagle/060301.wav,stimuli/Arrow/040301.wav,NA,1,silence,silence,W_1,1,0,0,1,0
F2024_1,stimuli/tones/FlatIEC-18dB.wav,1.25,38,space,3.0845,G_2,stimuli/Baron6dB/070301.wav,stimuli/Hopper/030001.wav,stimuli/Ringo/010302.wav,NA,1,-18dB,Flat,G_2,1,1,0,0,0
F2024_1,stimuli/tones/FlatIEC-30dB.wav,0.75,39,noResp,NA,B_4,stimuli/Baron6dB/070303.wav,stimuli/Charlie/000301.wav,stimuli/Ringo/010203.wav,NA,0,-30dB,Flat,G_4,0,0,1,0,0
F2024_1,stimuli/tones/silence.wav,0.75,40,noResp,NA,W_4,stimuli/Baron6dB/070103.wav,stimuli/Arrow/040301.wav,stimuli/Hopper/030001.wav,NA,1,silence,silence,R_4,0,0,0,1,0
F2024_1,stimuli/tones/silence.wav,0.75,41,noResp,NA,W_1,stimuli/Baron6dB/070000.wav,stimuli/Laker/020203.wav,stimuli/Arrow/040203.wav,NA,1,silence,silence,B_1,0,0,0,1,0
F2024_1,stimuli/tones/PercTri-33dB.wav,1.25,42,noResp,NA,B_2,stimuli/Baron6dB/070001.wav,stimuli/Charlie/000303.wav,stimuli/Arrow/040300.wav,NA,0,-33dB,PercTri,B_2,1,0,1,0,0
F2024_1,stimuli/tones/PercTri-33dB.wav,1.25,43,noResp,NA,W_4,stimuli/Baron6dB/070203.wav,stimuli/Laker/020003.wav,stimuli/Hopper/030003.wav,NA,0,-33dB,PercTri,W_4,1,0,1,0,0
F2024_1,stimuli/tones/silence.wav,0.75,44,noResp,NA,G_1,stimuli/Baron6dB/070300.wav,stimuli/Ringo/010200.wav,stimuli/Arrow/040000.wav,NA,1,silence,silence,G_1,1,0,0,1,0
F2024_1,stimuli/tones/silence.wav,2,45,noResp,NA,W_2,stimuli/Baron6dB/070201.wav,stimuli/Eagle/060102.wav,stimuli/Tiger/050101.wav,NA,1,silence,silence,W_2,1,0,0,1,0
F2024_1,stimuli/tones/PercTri-27dB.wav,0.75,46,space,2.8532,G_3,stimuli/Baron6dB/070302.wav,stimuli/Eagle/060002.wav,stimuli/Tiger/050002.wav,NA,1,-27dB,PercTri,G_3,1,1,0,0,0
F2024_1,stimuli/tones/PercTri-33dB.wav,0.75,47,noResp,NA,W_3,stimuli/Baron6dB/070202.wav,stimuli/Eagle/060001.wav,stimuli/Eagle/060300.wav,NA,0,-33dB,PercTri,W_3,1,0,1,0,0
F2024_1,stimuli/tones/FlatIEC-18dB.wav,0.75,48,space,2.9778,G_3,stimuli/Baron6dB/070302.wav,stimuli/Arrow/040202.wav,stimuli/Ringo/010000.wav,NA,1,-18dB,Flat,G_3,1,1,0,0,0
F2024_1,stimuli/tones/silence.wav,2,49,noResp,NA,B_3,stimuli/Baron6dB/070002.wav,stimuli/Hopper/030201.wav,stimuli/Laker/020001.wav,NA,1,silence,silence,B_3,1,0,0,1,0
F2024_1,stimuli/tones/PercTri-27dB.wav,2,50,noResp,NA,W_1,stimuli/Baron6dB/070000.wav,stimuli/Arrow/040201.wav,stimuli/Arrow/040302.wav,NA,0,-27dB,PercTri,B_1,0,0,1,0,0
F2024_1,stimuli/tones/PercTri-24dB.wav,2,51,noResp,NA,B_2,stimuli/Baron6dB/070001.wav,stimuli/Eagle/060303.wav,stimuli/Charlie/000101.wav,NA,0,-24dB,PercTri,B_2,1,0,1,0,0
F2024_1,stimuli/tones/FlatIEC-21dB.wav,0.75,52,noResp,NA,W_3,stimuli/Baron6dB/070102.wav,stimuli/Tiger/050100.wav,stimuli/Ringo/010101.wav,NA,0,-21dB,Flat,R_3,0,0,1,0,0
F2024_1,stimuli/tones/silence.wav,1.25,53,noResp,NA,B_4,stimuli/Baron6dB/070003.wav,stimuli/Laker/020103.wav,stimuli/Charlie/000003.wav,NA,1,silence,silence,B_4,1,0,0,1,0
F2024_1,stimuli/tones/FlatIEC-27dB.wav,0.75,54,noResp,NA,G_2,stimuli/Baron6dB/070301.wav,stimuli/Hopper/030200.wav,stimuli/Arrow/040002.wav,NA,0,-27dB,Flat,G_2,1,0,1,0,0
F2024_1,stimuli/tones/FlatIEC-24dB.wav,0.75,55,space,3.3232,W_4,stimuli/Baron6dB/070203.wav,stimuli/Hopper/030000.wav,stimuli/Eagle/060103.wav,NA,1,-24dB,Flat,W_4,1,1,0,0,0
F2024_1,stimuli/tones/silence.wav,0.75,56,noResp,NA,W_1,stimuli/Baron6dB/070100.wav,stimuli/Laker/020002.wav,stimuli/Laker/020202.wav,NA,1,silence,silence,R_1,0,0,0,1,0
F2024_1,stimuli/tones/FlatIEC-24dB.wav,2,57,space,3.1411,R_2,stimuli/Baron6dB/070101.wav,stimuli/Hopper/030301.wav,stimuli/Hopper/030302.wav,NA,1,-24dB,Flat,R_2,1,1,0,0,0
F2024_1,stimuli/tones/silence.wav,0.75,58,noResp,NA,G_4,stimuli/Baron6dB/070303.wav,stimuli/Tiger/050102.wav,stimuli/Tiger/050102.wav,NA,1,silence,silence,G_4,1,0,0,1,0
F2024_1,stimuli/tones/silence.wav,0.75,59,noResp,NA,R_4,stimuli/Baron6dB/070103.wav,stimuli/Hopper/030002.wav,stimuli/Arrow/040201.wav,NA,1,silence,silence,R_4,1,0,0,1,0
F2024_1,stimuli/tones/PercTri-24dB.wav,0.75,60,noResp,NA,W_1,stimuli/Baron6dB/070200.wav,stimuli/Ringo/010203.wav,stimuli/Eagle/060200.wav,NA,0,-24dB,PercTri,W_1,1,0,1,0,0
F2024_1,stimuli/tones/silence.wav,0.75,61,noResp,NA,W_2,stimuli/Baron6dB/070201.wav,stimuli/Charlie/000002.wav,stimuli/Ringo/010102.wav,NA,1,silence,silence,W_2,1,0,0,1,0
F2024_1,stimuli/tones/FlatIEC-27dB.wav,2,62,space,3.382,W_3,stimuli/Baron6dB/070202.wav,stimuli/Charlie/000000.wav,stimuli/Arrow/040100.wav,NA,1,-27dB,Flat,W_3,1,1,0,0,0
F2024_1,stimuli/tones/FlatIEC-18dB.wav,2,63,space,3.5195,G_1,stimuli/Baron6dB/070300.wav,stimuli/Arrow/040200.wav,stimuli/Laker/020201.wav,NA,1,-18dB,Flat,G_1,1,1,0,0,0
F2024_1,stimuli/tones/silence.wav,0.75,64,noResp,NA,B_4,stimuli/Baron6dB/070003.wav,stimuli/Hopper/030300.wav,stimuli/Tiger/050300.wav,NA,1,silence,silence,B_4,1,0,0,1,0
F2024_1,stimuli/tones/silence.wav,0.75,65,noResp,NA,W_4,stimuli/Baron6dB/070203.wav,stimuli/Ringo/010202.wav,stimuli/Tiger/050200.wav,NA,1,silence,silence,W_4,1,0,0,1,0
F2024_1,stimuli/tones/silence.wav,1.25,66,noResp,NA,W_3,stimuli/Baron6dB/070202.wav,stimuli/Hopper/030103.wav,stimuli/Charlie/000001.wav,NA,1,silence,silence,W_3,1,0,0,1,0
F2024_1,stimuli/tones/PercTri-21dB.wav,2,67,space,3.8761,W_2,stimuli/Baron6dB/070001.wav,stimuli/Arrow/040303.wav,stimuli/Ringo/010001.wav,NA,1,-21dB,PercTri,B_2,0,1,0,0,0
F2024_1,stimuli/tones/silence.wav,1.25,68,noResp,NA,W_3,stimuli/Baron6dB/070102.wav,stimuli/Tiger/050200.wav,stimuli/Ringo/010002.wav,NA,1,silence,silence,R_3,0,0,0,1,0
F2024_1,stimuli/tones/silence.wav,1.25,69,noResp,NA,W_1,stimuli/Baron6dB/070200.wav,stimuli/Hopper/030100.wav,stimuli/Ringo/010103.wav,NA,1,silence,silence,W_1,1,0,0,1,0
F2024_1,stimuli/tones/FlatIEC-24dB.wav,0.75,70,noResp,NA,G_4,stimuli/Baron6dB/070303.wav,stimuli/Laker/020100.wav,stimuli/Eagle/060100.wav,NA,0,-24dB,Flat,G_4,1,0,1,0,0
F2024_1,stimuli/tones/FlatIEC-18dB.wav,1.25,71,space,2.7867,B_1,stimuli/Baron6dB/070000.wav,stimuli/Eagle/060203.wav,stimuli/Hopper/030101.wav,NA,1,-18dB,Flat,B_1,1,1,0,0,0
F2024_1,stimuli/tones/silence.wav,1.25,72,space,3.6949,W_2,stimuli/Baron6dB/070201.wav,stimuli/Hopper/030303.wav,stimuli/Charlie/000201.wav,NA,0,silence,silence,W_2,1,0,0,0,1
F2024_1,stimuli/tones/FlatIEC-21dB.wav,1.25,73,space,2.9362,R_4,stimuli/Baron6dB/070103.wav,stimuli/Charlie/000101.wav,stimuli/Tiger/050301.wav,NA,1,-21dB,Flat,R_4,1,1,0,0,0
F2024_1,stimuli/tones/FlatIEC-27dB.wav,2,74,space,3.5494,W_1,stimuli/Baron6dB/070100.wav,stimuli/Tiger/050303.wav,stimuli/Laker/020003.wav,NA,1,-27dB,Flat,R_1,0,1,0,0,0
F2024_1,stimuli/tones/PercTri-30dB.wav,2,75,noResp,NA,G_1,stimuli/Baron6dB/070300.wav,stimuli/Eagle/060003.wav,stimuli/Tiger/050203.wav,NA,0,-30dB,PercTri,G_1,1,0,1,0,0
F2024_1,stimuli/tones/FlatIEC-30dB.wav,2,76,space,3.9095,G_3,stimuli/Baron6dB/070302.wav,stimuli/Laker/020101.wav,stimuli/Hopper/030203.wav,NA,1,-30dB,Flat,G_3,1,1,0,0,0
F2024_1,stimuli/tones/PercTri-30dB.wav,1.25,77,noResp,NA,B_3,stimuli/Baron6dB/070002.wav,stimuli/Ringo/010002.wav,stimuli/Laker/020101.wav,NA,0,-30dB,PercTri,B_3,1,0,1,0,0
F2024_1,stimuli/tones/silence.wav,0.75,78,noResp,NA,G_2,stimuli/Baron6dB/070301.wav,stimuli/Ringo/010300.wav,stimuli/Ringo/010100.wav,NA,1,silence,silence,G_2,1,0,0,1,0
F2024_1,stimuli/tones/silence.wav,2,79,noResp,NA,R_2,stimuli/Baron6dB/070101.wav,stimuli/Arrow/040102.wav,stimuli/Tiger/050000.wav,NA,1,silence,silence,R_2,1,0,0,1,0
F2024_1,stimuli/tones/PercTri-21dB.wav,2,80,noResp,NA,G_4,stimuli/Baron6dB/070303.wav,stimuli/Arrow/040300.wav,stimuli/Charlie/000002.wav,NA,0,-21dB,PercTri,G_4,1,0,1,0,0
F2024_1,stimuli/tones/silence.wav,2,81,noResp,NA,W_2,stimuli/Baron6dB/070201.wav,stimuli/Eagle/060300.wav,stimuli/Eagle/060202.wav,NA,1,silence,silence,W_2,1,0,0,1,0
F2024_1,stimuli/tones/FlatIEC-27dB.wav,1.25,82,noResp,NA,B_1,stimuli/Baron6dB/070000.wav,stimuli/Ringo/010103.wav,stimuli/Tiger/050303.wav,NA,0,-27dB,Flat,B_1,1,0,1,0,0
F2024_1,stimuli/tones/silence.wav,1.25,83,noResp,NA,R_2,stimuli/Baron6dB/070101.wav,stimuli/Arrow/040100.wav,stimuli/Hopper/030200.wav,NA,1,silence,silence,R_2,1,0,0,1,0
F2024_1,stimuli/tones/silence.wav,0.75,84,noResp,NA,R_1,stimuli/Baron6dB/070302.wav,stimuli/Arrow/040101.wav,stimuli/Arrow/040101.wav,NA,1,silence,silence,G_3,0,0,0,1,0
F2024_1,stimuli/tones/PercTri-21dB.wav,2,85,noResp,NA,R_4,stimuli/Baron6dB/070103.wav,stimuli/Tiger/050003.wav,stimuli/Tiger/050100.wav,NA,0,-21dB,PercTri,R_4,1,0,1,0,0
F2024_1,stimuli/tones/silence.wav,1.25,86,space,2.392,W_3,stimuli/Baron6dB/070202.wav,stimuli/Ringo/010000.wav,stimuli/Laker/020102.wav,NA,0,silence,silence,W_3,1,0,0,0,1
F2024_1,stimuli/tones/PercTri-21dB.wav,1.25,87,noResp,NA,B_3,stimuli/Baron6dB/070002.wav,stimuli/Ringo/010303.wav,stimuli/Hopper/030102.wav,NA,0,-21dB,PercTri,B_3,1,0,1,0,0
F2024_1,stimuli/tones/silence.wav,0.75,88,noResp,NA,G_2,stimuli/Baron6dB/070301.wav,stimuli/Charlie/000001.wav,stimuli/Laker/020200.wav,NA,1,silence,silence,G_2,1,0,0,1,0
F2024_1,stimuli/tones/FlatIEC-33dB.wav,0.75,89,space,3.3349,B_4,stimuli/Baron6dB/070003.wav,stimuli/Tiger/050302.wav,stimuli/Ringo/010303.wav,NA,1,-33dB,Flat,B_4,1,1,0,0,0
F2024_1,stimuli/tones/PercTri-30dB.wav,2,90,noResp,NA,R_3,stimuli/Baron6dB/070102.wav,stimuli/Laker/020201.wav,stimuli/Eagle/060001.wav,NA,0,-30dB,PercTri,R_3,1,0,1,0,0
F2024_1,stimuli/tones/PercTri-27dB.wav,1.25,91,noResp,NA,B_4,stimuli/Baron6dB/070203.wav,stimuli/Tiger/050000.wav,stimuli/Hopper/030301.wav,NA,0,-27dB,PercTri,W_4,0,0,1,0,0
F2024_1,stimuli/tones/silence.wav,1.25,92,noResp,NA,W_1,stimuli/Baron6dB/070100.wav,stimuli/Hopper/030203.wav,stimuli/Hopper/030002.wav,NA,1,silence,silence,R_1,0,0,0,1,0
F2024_1,stimuli/tones/PercTri-18dB.wav,1.25,93,noResp,NA,W_1,stimuli/Baron6dB/070200.wav,stimuli/Laker/020102.wav,stimuli/Laker/020002.wav,NA,0,-18dB,PercTri,W_1,1,0,1,0,0
F2024_1,stimuli/tones/FlatIEC-21dB.wav,1.25,94,space,3.2633,B_2,stimuli/Baron6dB/070001.wav,stimuli/Tiger/050002.wav,stimuli/Charlie/000100.wav,NA,1,-21dB,Flat,B_2,1,1,0,0,0
F2024_1,stimuli/tones/FlatIEC-21dB.wav,2,95,space,3.1204,G_1,stimuli/Baron6dB/070300.wav,stimuli/Eagle/060000.wav,stimuli/Arrow/040303.wav,NA,1,-21dB,Flat,G_1,1,1,0,0,0
F2024_1,stimuli/tones/FlatIEC-33dB.wav,0.75,96,noResp,NA,R_1,stimuli/Baron6dB/070100.wav,stimuli/Eagle/060101.wav,stimuli/Ringo/010301.wav,NA,0,-33dB,Flat,R_1,1,0,1,0,0
F2024_1,stimuli/tones/FlatIEC-24dB.wav,1.25,97,space,2.8994,W_2,stimuli/Baron6dB/070101.wav,stimuli/Charlie/000003.wav,stimuli/Charlie/000102.wav,NA,1,-24dB,Flat,R_2,0,1,0,0,0
F2024_1,stimuli/tones/FlatIEC-30dB.wav,2,98,space,3.217,G_4,stimuli/Baron6dB/070303.wav,stimuli/Laker/020000.wav,stimuli/Tiger/050302.wav,NA,1,-30dB,Flat,G_4,1,1,0,0,0
F2024_1,stimuli/tones/PercTri-27dB.wav,0.75,99,noResp,NA,G_1,stimuli/Baron6dB/070300.wav,stimuli/Tiger/050103.wav,stimuli/Charlie/000200.wav,NA,0,-27dB,PercTri,G_1,1,0,1,0,0
F2024_1,stimuli/tones/silence.wav,0.75,100,noResp,NA,R_4,stimuli/Baron6dB/070203.wav,stimuli/Eagle/060302.wav,stimuli/Laker/020303.wav,NA,1,silence,silence,W_4,0,0,0,1,0
F2024_1,stimuli/tones/silence.wav,0.75,101,noResp,NA,R_4,stimuli/Baron6dB/070103.wav,stimuli/Laker/020001.wav,stimuli/Hopper/030000.wav,NA,1,silence,silence,R_4,1,0,0,1,0
F2024_1,stimuli/tones/silence.wav,2,102,noResp,NA,W_1,stimuli/Baron6dB/070200.wav,stimuli/Charlie/000100.wav,stimuli/Charlie/000302.wav,NA,1,silence,silence,W_1,1,0,0,1,0
F2024_1,stimuli/tones/PercTri-18dB.wav,1.25,103,space,4.7429,G_4,stimuli/Baron6dB/070003.wav,stimuli/Arrow/040003.wav,stimuli/Arrow/040003.wav,NA,1,-18dB,PercTri,B_4,0,1,0,0,0
F2024_1,stimuli/tones/PercTri-33dB.wav,2,104,noResp,NA,B_1,stimuli/Baron6dB/070000.wav,stimuli/Hopper/030102.wav,stimuli/Laker/020300.wav,NA,0,-33dB,PercTri,B_1,1,0,1,0,0
F2024_1,stimuli/tones/FlatIEC-30dB.wav,2,105,noResp,NA,W_3,stimuli/Baron6dB/070202.wav,stimuli/Charlie/000202.wav,stimuli/Hopper/030202.wav,NA,0,-30dB,Flat,W_3,1,0,1,0,0
F2024_1,stimuli/tones/silence.wav,2,106,noResp,NA,W_2,stimuli/Baron6dB/070201.wav,stimuli/Arrow/040203.wav,stimuli/Eagle/060101.wav,NA,1,silence,silence,W_2,1,0,0,1,0
F2024_1,stimuli/tones/silence.wav,0.75,107,noResp,NA,G_3,stimuli/Baron6dB/070302.wav,stimuli/Hopper/030003.wav,stimuli/Charlie/000000.wav,NA,1,silence,silence,G_3,1,0,0,1,0
F2024_1,stimuli/tones/FlatIEC-30dB.wav,1.25,108,space,2.3086,B_2,stimuli/Baron6dB/070001.wav,stimuli/Arrow/040302.wav,stimuli/Laker/020100.wav,NA,1,-30dB,Flat,B_2,1,1,0,0,0
F2024_1,stimuli/tones/silence.wav,2,109,noResp,NA,B_3,stimuli/Baron6dB/070002.wav,stimuli/Hopper/030202.wav,stimuli/Hopper/030103.wav,NA,1,silence,silence,B_3,1,0,0,1,0
F2024_1,stimuli/tones/FlatIEC-33dB.wav,1.25,110,noResp,NA,R_3,stimuli/Baron6dB/070102.wav,stimuli/Ringo/010100.wav,stimuli/Tiger/050201.wav,NA,0,-33dB,Flat,R_3,1,0,1,0,0
F2024_1,stimuli/tones/silence.wav,2,111,noResp,NA,G_2,stimuli/Baron6dB/070301.wav,stimuli/Charlie/000300.wav,stimuli/Laker/020301.wav,NA,1,silence,silence,G_2,1,0,0,1,0
F2024_1,stimuli/tones/PercTri-30dB.wav,0.75,112,noResp,NA,G_4,stimuli/Baron6dB/070303.wav,stimuli/Hopper/030103.wav,stimuli/Charlie/000000.wav,NA,0,-30dB,PercTri,G_4,1,0,1,0,0
F2024_1,stimuli/tones/silence.wav,1.25,113,noResp,NA,R_3,stimuli/Baron6dB/070102.wav,stimuli/Hopper/030101.wav,stimuli/Ringo/010303.wav,NA,1,silence,silence,R_3,1,0,0,1,0
F2024_1,stimuli/tones/silence.wav,0.75,114,noResp,NA,B_1,stimuli/Baron6dB/070000.wav,stimuli/Charlie/000103.wav,stimuli/Eagle/060301.wav,NA,1,silence,silence,B_1,1,0,0,1,0
F2024_1,stimuli/tones/silence.wav,1.25,115,noResp,NA,G_3,stimuli/Baron6dB/070302.wav,stimuli/Arrow/040300.wav,stimuli/Eagle/060103.wav,NA,1,silence,silence,G_3,1,0,0,1,0
F2024_1,stimuli/tones/silence.wav,2,116,noResp,NA,B_3,stimuli/Baron6dB/070002.wav,stimuli/Tiger/050202.wav,stimuli/Arrow/040102.wav,NA,1,silence,silence,B_3,1,0,0,1,0
F2024_1,stimuli/tones/silence.wav,2,117,noResp,NA,R_4,stimuli/Baron6dB/070103.wav,stimuli/Arrow/040003.wav,stimuli/Tiger/050000.wav,NA,1,silence,silence,R_4,1,0,0,1,0
F2024_1,stimuli/tones/silence.wav,1.25,118,noResp,NA,G_2,stimuli/Baron6dB/070301.wav,stimuli/Ringo/010002.wav,stimuli/Tiger/050203.wav,NA,1,silence,silence,G_2,1,0,0,1,0
F2024_1,stimuli/tones/silence.wav,0.75,119,noResp,NA,W_2,stimuli/Baron6dB/070201.wav,stimuli/Laker/020102.wav,stimuli/Ringo/010300.wav,NA,1,silence,silence,W_2,1,0,0,1,0
F2024_1,stimuli/tones/silence.wav,1.25,120,noResp,NA,W_1,stimuli/Baron6dB/070200.wav,stimuli/Laker/020002.wav,stimuli/Tiger/050301.wav,NA,1,silence,silence,W_1,1,0,0,1,0
F2024_1,stimuli/tones/silence.wav,1.25,121,noResp,NA,R_1,stimuli/Baron6dB/070100.wav,stimuli/Charlie/000302.wav,stimuli/Arrow/040303.wav,NA,1,silence,silence,R_1,1,0,0,1,0
F2024_1,stimuli/tones/PercTri-21dB.wav,0.75,122,noResp,NA,B_2,stimuli/Baron6dB/070001.wav,stimuli/Charlie/000001.wav,stimuli/Ringo/010103.wav,NA,0,-21dB,PercTri,B_2,1,0,1,0,0
F2024_1,stimuli/tones/silence.wav,2,123,noResp,NA,W_4,stimuli/Baron6dB/070203.wav,stimuli/Arrow/040303.wav,stimuli/Ringo/010000.wav,NA,1,silence,silence,W_4,1,0,0,1,0
F2024_1,stimuli/tones/silence.wav,1.25,124,noResp,NA,W_3,stimuli/Baron6dB/070202.wav,stimuli/Tiger/050001.wav,stimuli/Arrow/040103.wav,NA,1,silence,silence,W_3,1,0,0,1,0
F2024_1,stimuli/tones/PercTri-21dB.wav,1.25,125,noResp,NA,R_2,stimuli/Baron6dB/070101.wav,stimuli/Laker/020203.wav,stimuli/Hopper/030300.wav,NA,0,-21dB,PercTri,R_2,1,0,1,0,0
F2024_1,stimuli/tones/silence.wav,0.75,126,noResp,NA,B_4,stimuli/Baron6dB/070003.wav,stimuli/Laker/020001.wav,stimuli/Laker/020300.wav,NA,1,silence,silence,B_4,1,0,0,1,0
F2024_1,stimuli/tones/silence.wav,1.25,127,noResp,NA,G_1,stimuli/Baron6dB/070300.wav,stimuli/Hopper/030203.wav,stimuli/Eagle/060300.wav,NA,1,silence,silence,G_1,1,0,0,1,0
F2024_1,stimuli/tones/FlatIEC-27dB.wav,1.25,128,noResp,NA,B_3,stimuli/Baron6dB/070002.wav,stimuli/Eagle/060003.wav,stimuli/Ringo/010001.wav,NA,0,-27dB,Flat,B_3,1,0,1,0,0
F2024_1,stimuli/tones/FlatIEC-18dB.wav,1.25,129,space,2.8489,W_2,stimuli/Baron6dB/070201.wav,stimuli/Tiger/050000.wav,stimuli/Tiger/050201.wav,NA,1,-18dB,Flat,W_2,1,1,0,0,0
F2024_1,stimuli/tones/PercTri-27dB.wav,2,130,noResp,NA,W_1,stimuli/Baron6dB/070200.wav,stimuli/Ringo/010203.wav,stimuli/Charlie/000203.wav,NA,0,-27dB,PercTri,W_1,1,0,1,0,0
F2024_1,stimuli/tones/PercTri-33dB.wav,0.75,131,space,3.1269,R_1,stimuli/Baron6dB/070100.wav,stimuli/Eagle/060201.wav,stimuli/Charlie/000100.wav,NA,1,-33dB,PercTri,R_1,1,1,0,0,0
F2024_1,stimuli/tones/PercTri-18dB.wav,0.75,132,noResp,NA,W_3,stimuli/Baron6dB/070102.wav,stimuli/Charlie/000003.wav,stimuli/Ringo/010101.wav,NA,0,-18dB,PercTri,R_3,0,0,1,0,0
F2024_1,stimuli/tones/silence.wav,1.25,133,noResp,NA,G_4,stimuli/Baron6dB/070303.wav,stimuli/Tiger/050200.wav,stimuli/Charlie/000002.wav,NA,1,silence,silence,G_4,1,0,0,1,0
F2024_1,stimuli/tones/silence.wav,1.25,134,space,3.2198,B_1,stimuli/Baron6dB/070000.wav,stimuli/Eagle/060100.wav,stimuli/Laker/020301.wav,NA,0,silence,silence,B_1,1,0,0,0,1
F2024_1,stimuli/tones/silence.wav,1.25,135,noResp,NA,G_2,stimuli/Baron6dB/070301.wav,stimuli/Ringo/010303.wav,stimuli/Tiger/050001.wav,NA,1,silence,silence,G_2,1,0,0,1,0
F2024_1,stimuli/tones/silence.wav,0.75,136,noResp,NA,B_4,stimuli/Baron6dB/070003.wav,stimuli/Arrow/040103.wav,stimuli/Hopper/030001.wav,NA,1,silence,silence,B_4,1,0,0,1,0
F2024_1,stimuli/tones/silence.wav,1.25,137,noResp,NA,W_3,stimuli/Baron6dB/070202.wav,stimuli/Tiger/050101.wav,stimuli/Charlie/000001.wav,NA,1,silence,silence,W_3,1,0,0,1,0
F2024_1,stimuli/tones/FlatIEC-30dB.wav,1.25,138,noResp,NA,B_2,stimuli/Baron6dB/070001.wav,stimuli/Laker/020202.wav,stimuli/Hopper/030102.wav,NA,0,-30dB,Flat,B_2,1,0,1,0,0
F2024_1,stimuli/tones/silence.wav,2,139,noResp,NA,R_2,stimuli/Baron6dB/070101.wav,stimuli/Ringo/010102.wav,stimuli/Eagle/060302.wav,NA,1,silence,silence,R_2,1,0,0,1,0
F2024_1,stimuli/tones/PercTri-24dB.wav,2,140,space,2.7449,G_3,stimuli/Baron6dB/070302.wav,stimuli/Arrow/040000.wav,stimuli/Hopper/030101.wav,NA,1,-24dB,PercTri,G_3,1,1,0,0,0
F2024_1,stimuli/tones/silence.wav,2,141,noResp,NA,W_1,stimuli/Baron6dB/070203.wav,stimuli/Arrow/040002.wav,stimuli/Laker/020202.wav,NA,1,silence,silence,W_4,0,0,0,1,0
F2024_1,stimuli/tones/silence.wav,1.25,142,noResp,NA,G_1,stimuli/Baron6dB/070300.wav,stimuli/Tiger/050300.wav,stimuli/Hopper/030002.wav,NA,1,silence,silence,G_1,1,0,0,1,0
F2024_1,stimuli/tones/PercTri-24dB.wav,1.25,143,noResp,NA,R_4,stimuli/Baron6dB/070103.wav,stimuli/Charlie/000102.wav,stimuli/Eagle/060201.wav,NA,0,-24dB,PercTri,R_4,1,0,1,0,0
F2024_1,stimuli/tones/silence.wav,1.25,144,noResp,NA,R_2,stimuli/Baron6dB/070101.wav,stimuli/Laker/020000.wav,stimuli/Hopper/030200.wav,NA,1,silence,silence,R_2,1,0,0,1,0
F2024_1,stimuli/tones/silence.wav,0.75,145,noResp,NA,G_2,stimuli/Baron6dB/070301.wav,stimuli/Arrow/040201.wav,stimuli/Hopper/030103.wav,NA,1,silence,silence,G_2,1,0,0,1,0
F2024_1,stimuli/tones/FlatIEC-33dB.wav,1.25,146,noResp,NA,R_4,stimuli/Baron6dB/070103.wav,stimuli/Tiger/050301.wav,stimuli/Arrow/040301.wav,NA,0,-33dB,Flat,R_4,1,0,1,0,0
F2024_1,stimuli/tones/PercTri-18dB.wav,1.25,147,noResp,NA,B_1,stimuli/Baron6dB/070000.wav,stimuli/Charlie/000202.wav,stimuli/Charlie/000301.wav,NA,0,-18dB,PercTri,B_1,1,0,1,0,0
F2024_1,stimuli/tones/silence.wav,1.25,148,noResp,NA,R_1,stimuli/Baron6dB/070100.wav,stimuli/Charlie/000303.wav,stimuli/Tiger/050101.wav,NA,1,silence,silence,R_1,1,0,0,1,0
F2024_1,stimuli/tones/silence.wav,2,149,noResp,NA,G_4,stimuli/Baron6dB/070303.wav,stimuli/Charlie/000000.wav,stimuli/Ringo/010100.wav,NA,1,silence,silence,G_4,1,0,0,1,0
F2024_1,stimuli/tones/FlatIEC-21dB.wav,2,150,space,3.2783,G_3,stimuli/Baron6dB/070302.wav,stimuli/Eagle/060002.wav,stimuli/Hopper/030003.wav,NA,1,-21dB,Flat,G_3,1,1,0,0,0
F2024_1,stimuli/tones/silence.wav,1.25,151,noResp,NA,W_1,stimuli/Baron6dB/070200.wav,stimuli/Arrow/040202.wav,stimuli/Eagle/060102.wav,NA,1,silence,silence,W_1,1,0,0,1,0
F2024_1,stimuli/tones/silence.wav,1.25,152,noResp,NA,W_2,stimuli/Baron6dB/070201.wav,stimuli/Laker/020003.wav,stimuli/Ringo/010200.wav,NA,1,silence,silence,W_2,1,0,0,1,0
F2024_1,stimuli/tones/FlatIEC-24dB.wav,1.25,153,noResp,NA,R_3,stimuli/Baron6dB/070102.wav,stimuli/Hopper/030002.wav,stimuli/Arrow/040200.wav,NA,0,-24dB,Flat,R_3,1,0,1,0,0
F2024_1,stimuli/tones/PercTri-18dB.wav,2,154,noResp,NA,W_4,stimuli/Baron6dB/070203.wav,stimuli/Ringo/010201.wav,stimuli/Hopper/030202.wav,NA,0,-18dB,PercTri,W_4,1,0,1,0,0
F2024_1,stimuli/tones/PercTri-30dB.wav,1.25,155,noResp,NA,W_3,stimuli/Baron6dB/070202.wav,stimuli/Arrow/040100.wav,stimuli/Eagle/060202.wav,NA,0,-30dB,PercTri,W_3,1,0,1,0,0
F2024_1,stimuli/tones/silence.wav,2,156,noResp,NA,G_1,stimuli/Baron6dB/070300.wav,stimuli/Charlie/000200.wav,stimuli/Hopper/030201.wav,NA,1,silence,silence,G_1,1,0,0,1,0
F2024_1,stimuli/tones/PercTri-24dB.wav,2,157,noResp,NA,B_4,stimuli/Baron6dB/070003.wav,stimuli/Arrow/040301.wav,stimuli/Charlie/000303.wav,NA,0,-24dB,PercTri,B_4,1,0,1,0,0
F2024_1,stimuli/tones/silence.wav,2,158,noResp,NA,B_3,stimuli/Baron6dB/070002.wav,stimuli/Laker/020100.wav,stimuli/Charlie/000300.wav,NA,1,silence,silence,B_3,1,0,0,1,0
F2024_1,stimuli/tones/silence.wav,0.75,159,noResp,NA,B_2,stimuli/Baron6dB/070001.wav,stimuli/Hopper/030102.wav,stimuli/Hopper/030000.wav,NA,1,silence,silence,B_2,1,0,0,1,0
F2024_1,stimuli/tones/silence.wav,2,160,noResp,NA,W_3,stimuli/Baron6dB/070202.wav,stimuli/Laker/020301.wav,stimuli/Tiger/050102.wav,NA,1,silence,silence,W_3,1,0,0,1,0
F2024_1,stimuli/tones/silence.wav,2,161,noResp,NA,R_2,stimuli/Baron6dB/070101.wav,stimuli/Eagle/060202.wav,stimuli/Charlie/000103.wav,NA,1,silence,silence,R_2,1,0,0,1,0
F2024_1,stimuli/tones/FlatIEC-24dB.wav,2,162,space,3.2008,G_1,stimuli/Baron6dB/070300.wav,stimuli/Charlie/000201.wav,stimuli/Laker/020003.wav,NA,1,-24dB,Flat,G_1,1,1,0,0,0
F2024_1,stimuli/tones/silence.wav,0.75,163,noResp,NA,R_3,stimuli/Baron6dB/070102.wav,stimuli/Ringo/010103.wav,stimuli/Tiger/050202.wav,NA,1,silence,silence,R_3,1,0,0,1,0
F2024_1,stimuli/tones/silence.wav,0.75,164,noResp,NA,B_1,stimuli/Baron6dB/070000.wav,stimuli/Eagle/060102.wav,stimuli/Arrow/040300.wav,NA,1,silence,silence,B_1,1,0,0,1,0
F2024_1,stimuli/tones/FlatIEC-24dB.wav,0.75,165,space,3.4829,G_4,stimuli/Baron6dB/070303.wav,stimuli/Tiger/050203.wav,stimuli/Arrow/040003.wav,NA,1,-24dB,Flat,G_4,1,1,0,0,0
F2024_1,stimuli/tones/silence.wav,2,166,noResp,NA,W_2,stimuli/Baron6dB/070201.wav,stimuli/Charlie/000300.wav,stimuli/Hopper/030301.wav,NA,1,silence,silence,W_2,1,0,0,1,0
F2024_1,stimuli/tones/silence.wav,1.25,167,noResp,NA,B_2,stimuli/Baron6dB/070001.wav,stimuli/Ringo/010001.wav,stimuli/Tiger/050303.wav,NA,1,silence,silence,B_2,1,0,0,1,0
F2024_1,stimuli/tones/PercTri-18dB.wav,0.75,168,noResp,NA,R_1,stimuli/Baron6dB/070100.wav,stimuli/Laker/020300.wav,stimuli/Hopper/030100.wav,NA,0,-18dB,PercTri,R_1,1,0,1,0,0
F2024_1,stimuli/tones/PercTri-30dB.wav,2,169,noResp,NA,B_3,stimuli/Baron6dB/070002.wav,stimuli/Ringo/010100.wav,stimuli/Eagle/060303.wav,NA,0,-30dB,PercTri,B_3,1,0,1,0,0
F2024_1,stimuli/tones/silence.wav,0.75,170,space,3.1836,B_4,stimuli/Baron6dB/070003.wav,stimuli/Hopper/030302.wav,stimuli/Arrow/040202.wav,NA,0,silence,silence,B_4,1,0,0,0,1
F2024_1,stimuli/tones/silence.wav,0.75,171,noResp,NA,G_2,stimuli/Baron6dB/070301.wav,stimuli/Tiger/050302.wav,stimuli/Eagle/060001.wav,NA,1,silence,silence,G_2,1,0,0,1,0
F2024_1,stimuli/tones/FlatIEC-33dB.wav,2,172,space,4.876,G_3,stimuli/Baron6dB/070302.wav,stimuli/Eagle/060000.wav,stimuli/Arrow/040001.wav,NA,1,-33dB,Flat,G_3,1,1,0,0,0
F2024_1,stimuli/tones/PercTri-30dB.wav,0.75,173,noResp,NA,W_4,stimuli/Baron6dB/070203.wav,stimuli/Arrow/040102.wav,stimuli/Arrow/040101.wav,NA,0,-30dB,PercTri,W_4,1,0,1,0,0
F2024_1,stimuli/tones/PercTri-27dB.wav,2,174,noResp,NA,W_1,stimuli/Baron6dB/070200.wav,stimuli/Arrow/040101.wav,stimuli/Eagle/060002.wav,NA,0,-27dB,PercTri,W_1,1,0,1,0,0
F2024_1,stimuli/tones/FlatIEC-33dB.wav,2,175,space,3.2654,R_4,stimuli/Baron6dB/070103.wav,stimuli/Eagle/060001.wav,stimuli/Ringo/010201.wav,NA,1,-33dB,Flat,R_4,1,1,0,0,0
F2024_1,stimuli/tones/PercTri-18dB.wav,2,176,noResp,NA,B_2,stimuli/Baron6dB/070001.wav,stimuli/Hopper/030202.wav,stimuli/Charlie/000201.wav,NA,0,-18dB,PercTri,B_2,1,0,1,0,0
F2024_1,stimuli/tones/FlatIEC-21dB.wav,0.75,177,space,3.2663,G_3,stimuli/Baron6dB/070302.wav,stimuli/Eagle/060303.wav,stimuli/Laker/020101.wav,NA,1,-21dB,Flat,G_3,1,1,0,0,0
F2024_1,stimuli/tones/silence.wav,1.25,178,noResp,NA,G_1,stimuli/Baron6dB/070300.wav,stimuli/Eagle/060101.wav,stimuli/Ringo/010301.wav,NA,1,silence,silence,G_1,1,0,0,1,0
F2024_1,stimuli/tones/PercTri-30dB.wav,1.25,179,noResp,NA,W_2,stimuli/Baron6dB/070201.wav,stimuli/Hopper/030200.wav,stimuli/Eagle/060100.wav,NA,0,-30dB,PercTri,W_2,1,0,1,0,0
F2024_1,stimuli/tones/silence.wav,2,180,noResp,NA,R_4,stimuli/Baron6dB/070103.wav,stimuli/Eagle/060203.wav,stimuli/Tiger/050100.wav,NA,1,silence,silence,R_4,1,0,0,1,0
F2024_1,stimuli/tones/silence.wav,2,181,noResp,NA,G_2,stimuli/Baron6dB/070301.wav,stimuli/Hopper/030301.wav,stimuli/Ringo/010003.wav,NA,1,silence,silence,G_2,1,0,0,1,0
F2024_1,stimuli/tones/silence.wav,0.75,182,noResp,NA,B_1,stimuli/Baron6dB/070000.wav,stimuli/Eagle/060301.wav,stimuli/Ringo/010302.wav,NA,1,silence,silence,B_1,1,0,0,1,0
F2024_1,stimuli/tones/silence.wav,2,183,noResp,NA,W_3,stimuli/Baron6dB/070102.wav,stimuli/Tiger/050103.wav,stimuli/Tiger/050103.wav,NA,1,silence,silence,R_3,0,0,0,1,0
F2024_1,stimuli/tones/PercTri-24dB.wav,1.25,184,noResp,NA,B_3,stimuli/Baron6dB/070002.wav,stimuli/Laker/020101.wav,stimuli/Arrow/040002.wav,NA,0,-24dB,PercTri,B_3,1,0,1,0,0
F2024_1,stimuli/tones/silence.wav,2,185,space,3.3179,W_2,stimuli/Baron6dB/070101.wav,stimuli/Arrow/040001.wav,stimuli/Charlie/000003.wav,NA,0,silence,silence,R_2,0,0,0,0,1
F2024_1,stimuli/tones/FlatIEC-33dB.wav,0.75,186,noResp,NA,B_4,stimuli/Baron6dB/070003.wav,stimuli/Hopper/030000.wav,stimuli/Laker/020303.wav,NA,0,-33dB,Flat,B_4,1,0,1,0,0
F2024_1,stimuli/tones/PercTri-27dB.wav,0.75,187,noResp,NA,W_3,stimuli/Baron6dB/070202.wav,stimuli/Hopper/030003.wav,stimuli/Arrow/040100.wav,NA,0,-27dB,PercTri,W_3,1,0,1,0,0
F2024_1,stimuli/tones/FlatIEC-30dB.wav,1.25,188,noResp,NA,G_4,stimuli/Baron6dB/070303.wav,stimuli/Ringo/010301.wav,stimuli/Ringo/010203.wav,NA,0,-30dB,Flat,G_4,1,0,1,0,0
F2024_1,stimuli/tones/silence.wav,1.25,189,noResp,NA,W_1,stimuli/Baron6dB/070200.wav,stimuli/Tiger/050201.wav,stimuli/Tiger/050300.wav,NA,1,silence,silence,W_1,1,0,0,1,0
F2024_1,stimuli/tones/PercTri-30dB.wav,0.75,190,noResp,NA,W_4,stimuli/Baron6dB/070203.wav,stimuli/Charlie/000100.wav,stimuli/Hopper/030203.wav,NA,0,-30dB,PercTri,W_4,1,0,1,0,0
F2024_1,stimuli/tones/PercTri-27dB.wav,1.25,191,noResp,NA,R_1,stimuli/Baron6dB/070100.wav,stimuli/Hopper/030300.wav,stimuli/Laker/020203.wav,NA,0,-27dB,PercTri,R_1,1,0,1,0,0
F2024_1,stimuli/tones/silence.wav,2,192,noResp,NA,R_3,stimuli/Baron6dB/070102.wav,stimuli/Arrow/040200.wav,stimuli/Laker/020001.wav,NA,1,silence,silence,R_3,1,0,0,1,0
F2024_1,stimuli/tones/silence.wav,2,193,noResp,NA,W_3,stimuli/Baron6dB/070202.wav,stimuli/Hopper/030001.wav,stimuli/Laker/020302.wav,NA,1,silence,silence,W_3,1,0,0,1,0
F2024_1,stimuli/tones/silence.wav,0.75,194,noResp,NA,G_3,stimuli/Baron6dB/070002.wav,stimuli/Ringo/010000.wav,stimuli/Charlie/000202.wav,NA,1,silence,silence,B_3,0,0,0,1,0
F2024_1,stimuli/tones/PercTri-21dB.wav,0.75,195,noResp,NA,G_3,stimuli/Baron6dB/070302.wav,stimuli/Laker/020201.wav,stimuli/Eagle/060003.wav,NA,0,-21dB,PercTri,G_3,1,0,1,0,0
F2024_1,stimuli/tones/silence.wav,2,196,noResp,NA,B_1,stimuli/Baron6dB/070000.wav,stimuli/Tiger/050002.wav,stimuli/Tiger/050200.wav,NA,1,silence,silence,B_1,1,0,0,1,0
F2024_1,stimuli/tones/PercTri-24dB.wav,0.75,197,noResp,NA,W_4,stimuli/Baron6dB/070203.wav,stimuli/Charlie/000203.wav,stimuli/Laker/020102.wav,NA,0,-24dB,PercTri,W_4,1,0,1,0,0
F2024_1,stimuli/tones/PercTri-18dB.wav,0.75,198,noResp,NA,W_2,stimuli/Baron6dB/070201.wav,stimuli/Eagle/060200.wav,stimuli/Tiger/050302.wav,NA,0,-18dB,PercTri,W_2,1,0,1,0,0
F2024_1,stimuli/tones/silence.wav,2,199,noResp,NA,R_4,stimuli/Baron6dB/070103.wav,stimuli/Laker/020302.wav,stimuli/Eagle/060101.wav,NA,1,silence,silence,R_4,1,0,0,1,0
F2024_1,stimuli/tones/FlatIEC-18dB.wav,0.75,200,space,2.5092,B_4,stimuli/Baron6dB/070003.wav,stimuli/Arrow/040203.wav,stimuli/Laker/020201.wav,NA,1,-18dB,Flat,B_4,1,1,0,0,0
F2024_1,stimuli/tones/silence.wav,2,201,noResp,NA,W_1,stimuli/Baron6dB/070200.wav,stimuli/Laker/020103.wav,stimuli/Ringo/010102.wav,NA,1,silence,silence,W_1,1,0,0,1,0
F2024_1,stimuli/tones/FlatIEC-24dB.wav,1.25,202,noResp,NA,G_4,stimuli/Baron6dB/070303.wav,stimuli/Charlie/000301.wav,stimuli/Laker/020000.wav,NA,0,-24dB,Flat,G_4,1,0,1,0,0
F2024_1,stimuli/tones/silence.wav,1.25,203,noResp,NA,G_2,stimuli/Baron6dB/070301.wav,stimuli/Ringo/010302.wav,stimuli/Arrow/040000.wav,NA,1,silence,silence,G_2,1,0,0,1,0
F2024_1,stimuli/tones/FlatIEC-21dB.wav,1.25,204,space,2.8945,B_2,stimuli/Baron6dB/070001.wav,stimuli/Tiger/050003.wav,stimuli/Hopper/030303.wav,NA,1,-21dB,Flat,B_2,1,1,0,0,0
F2024_1,stimuli/tones/silence.wav,2,205,noResp,NA,R_1,stimuli/Baron6dB/070100.wav,stimuli/Ringo/010101.wav,stimuli/Eagle/060200.wav,NA,1,silence,silence,R_1,1,0,0,1,0
F2024_1,stimuli/tones/FlatIEC-21dB.wav,0.75,206,noResp,NA,G_1,stimuli/Baron6dB/070300.wav,stimuli/Tiger/050303.wav,stimuli/Laker/020103.wav,NA,0,-21dB,Flat,G_1,1,0,1,0,0
F2024_1,stimuli/tones/FlatIEC-27dB.wav,0.75,207,noResp,NA,R_2,stimuli/Baron6dB/070101.wav,stimuli/Eagle/060103.wav,stimuli/Eagle/060000.wav,NA,0,-27dB,Flat,R_2,1,0,1,0,0
F2024_1,stimuli/tones/silence.wav,0.75,208,noResp,NA,B_1,stimuli/Baron6dB/070000.wav,stimuli/Hopper/030100.wav,stimuli/Charlie/000101.wav,NA,1,silence,silence,B_1,1,0,0,1,0
F2024_1,stimuli/tones/FlatIEC-33dB.wav,1.25,209,noResp,NA,B_3,stimuli/Baron6dB/070002.wav,stimuli/Eagle/060300.wav,stimuli/Laker/020200.wav,NA,0,-33dB,Flat,B_3,1,0,1,0,0
F2024_1,stimuli/tones/silence.wav,0.75,210,noResp,NA,W_4,stimuli/Baron6dB/070203.wav,stimuli/Charlie/000101.wav,stimuli/Ringo/010202.wav,NA,1,silence,silence,W_4,1,0,0,1,0
F2024_1,stimuli/tones/PercTri-33dB.wav,2,211,noResp,NA,R_2,stimuli/Baron6dB/070101.wav,stimuli/Ringo/010003.wav,stimuli/Hopper/030302.wav,NA,0,-33dB,PercTri,R_2,1,0,1,0,0
F2024_1,stimuli/tones/FlatIEC-27dB.wav,2,212,space,4.0118,W_4,stimuli/Baron6dB/070103.wav,stimuli/Charlie/000002.wav,stimuli/Charlie/000302.wav,NA,1,-27dB,Flat,R_4,0,1,0,0,0
F2024_1,stimuli/tones/FlatIEC-18dB.wav,2,213,space,3.2859,G_3,stimuli/Baron6dB/070302.wav,stimuli/Arrow/040302.wav,stimuli/Laker/020100.wav,NA,1,-18dB,Flat,G_3,1,1,0,0,0
F2024_1,stimuli/tones/FlatIEC-24dB.wav,2,214,space,3.2195,G_1,stimuli/Baron6dB/070300.wav,stimuli/Tiger/050100.wav,stimuli/Charlie/000102.wav,NA,1,-24dB,Flat,G_1,1,1,0,0,0
F2024_1,stimuli/tones/silence.wav,1.25,215,noResp,NA,W_3,stimuli/Baron6dB/070202.wav,stimuli/Hopper/030201.wav,stimuli/Arrow/040302.wav,NA,1,silence,silence,W_3,1,0,0,1,0
F2024_10,stimuli/tones/silence.wav,2,0,noResp,NA,G_4,stimuli/Baron6dB/070303.wav,stimuli/Laker/020000.wav,stimuli/Eagle/060301.wav,NA,1,silence,silence,G_4,1,0,0,1,0
F2024_10,stimuli/tones/silence.wav,1.25,1,noResp,NA,B_2,stimuli/Baron6dB/070001.wav,stimuli/Arrow/040000.wav,stimuli/Ringo/010302.wav,NA,1,silence,silence,B_2,1,0,0,1,0
F2024_10,stimuli/tones/silence.wav,2,2,noResp,NA,B_3,stimuli/Baron6dB/070002.wav,stimuli/Arrow/040201.wav,stimuli/Hopper/030301.wav,NA,1,silence,silence,B_3,1,0,0,1,0
F2024_10,stimuli/tones/silence.wav,1.25,3,noResp,NA,W_2,stimuli/Baron6dB/070201.wav,stimuli/Laker/020101.wav,stimuli/Tiger/050002.wav,NA,1,silence,silence,W_2,1,0,0,1,0
F2024_10,stimuli/tones/PercTri-33dB.wav,2,4,space,2.5988,W_3,stimuli/Baron6dB/070202.wav,stimuli/Arrow/040100.wav,stimuli/Arrow/040303.wav,NA,1,-33dB,PercTri,W_3,1,1,0,0,0
F2024_10,stimuli/tones/PercTri-21dB.wav,1.25,5,space,2.177,B_4,stimuli/Baron6dB/070003.wav,stimuli/Arrow/040203.wav,stimuli/Charlie/000102.wav,NA,1,-21dB,PercTri,B_4,1,1,0,0,0
F2024_10,stimuli/tones/silence.wav,1.25,6,noResp,NA,G_1,stimuli/Baron6dB/070300.wav,stimuli/Hopper/030103.wav,stimuli/Laker/020103.wav,NA,1,silence,silence,G_1,1,0,0,1,0
F2024_10,stimuli/tones/silence.wav,0.75,7,noResp,NA,B_1,stimuli/Baron6dB/070000.wav,stimuli/Charlie/000100.wav,stimuli/Charlie/000201.wav,NA,1,silence,silence,B_1,1,0,0,1,0
F2024_10,stimuli/tones/FlatIEC-27dB.wav,2,8,space,2.6317,G_2,stimuli/Baron6dB/070301.wav,stimuli/Ringo/010200.wav,stimuli/Charlie/000302.wav,NA,1,-27dB,Flat,G_2,1,1,0,0,0
F2024_10,stimuli/tones/PercTri-21dB.wav,2,9,space,2.5021,G_3,stimuli/Baron6dB/070302.wav,stimuli/Arrow/040102.wav,stimuli/Eagle/060203.wav,NA,1,-21dB,PercTri,G_3,1,1,0,0,0
F2024_10,stimuli/tones/PercTri-24dB.wav,1.25,10,space,1.7499,W_2,stimuli/Baron6dB/070101.wav,stimuli/Tiger/050200.wav,stimuli/Laker/020300.wav,NA,1,-24dB,PercTri,R_2,0,1,0,0,0
F2024_10,stimuli/tones/silence.wav,2,11,noResp,NA,R_3,stimuli/Baron6dB/070102.wav,stimuli/Hopper/030203.wav,stimuli/Charlie/000101.wav,NA,1,silence,silence,R_3,1,0,0,1,0
F2024_10,stimuli/tones/PercTri-33dB.wav,2,12,space,2.3918,W_4,stimuli/Baron6dB/070203.wav,stimuli/Laker/020002.wav,stimuli/Laker/020302.wav,NA,1,-33dB,PercTri,W_4,1,1,0,0,0
F2024_10,stimuli/tones/silence.wav,2,13,noResp,NA,W_1,stimuli/Baron6dB/070200.wav,stimuli/Tiger/050202.wav,stimuli/Charlie/000301.wav,NA,1,silence,silence,W_1,1,0,0,1,0
F2024_10,stimuli/tones/FlatIEC-30dB.wav,2,14,space,2.6643,R_4,stimuli/Baron6dB/070103.wav,stimuli/Hopper/030002.wav,stimuli/Ringo/010200.wav,NA,1,-30dB,Flat,R_4,1,1,0,0,0
F2024_10,stimuli/tones/silence.wav,0.75,15,noResp,NA,G_3,stimuli/Baron6dB/070100.wav,stimuli/Eagle/060103.wav,stimuli/Charlie/000002.wav,NA,1,silence,silence,R_1,0,0,0,1,0
F2024_10,stimuli/tones/PercTri-30dB.wav,1.25,16,space,1.6151,W_4,stimuli/Baron6dB/070303.wav,stimuli/Tiger/050101.wav,stimuli/Hopper/030101.wav,NA,1,-30dB,PercTri,G_4,0,1,0,0,0
F2024_10,stimuli/tones/silence.wav,2,17,noResp,NA,W_2,stimuli/Baron6dB/070201.wav,stimuli/Arrow/040001.wav,stimuli/Arrow/040301.wav,NA,1,silence,silence,W_2,1,0,0,1,0
F2024_10,stimuli/tones/PercTri-30dB.wav,0.75,18,space,1.2543,W_4,stimuli/Baron6dB/070203.wav,stimuli/Eagle/060201.wav,stimuli/Eagle/060102.wav,NA,1,-30dB,PercTri,W_4,1,1,0,0,0
F2024_10,stimuli/tones/PercTri-33dB.wav,2,19,space,2.5083,B_2,stimuli/Baron6dB/070001.wav,stimuli/Charlie/000300.wav,stimuli/Ringo/010202.wav,NA,1,-33dB,PercTri,B_2,1,1,0,0,0
F2024_10,stimuli/tones/FlatIEC-30dB.wav,1.25,20,noResp,NA,G_3,stimuli/Baron6dB/070302.wav,stimuli/Ringo/010002.wav,stimuli/Laker/020303.wav,NA,0,-30dB,Flat,G_3,1,0,1,0,0
F2024_10,stimuli/tones/silence.wav,1.25,21,noResp,NA,R_4,stimuli/Baron6dB/070103.wav,stimuli/Eagle/060003.wav,stimuli/Hopper/030103.wav,NA,1,silence,silence,R_4,1,0,0,1,0
F2024_10,stimuli/tones/silence.wav,2,22,noResp,NA,G_1,stimuli/Baron6dB/070300.wav,stimuli/Hopper/030102.wav,stimuli/Tiger/050200.wav,NA,1,silence,silence,G_1,1,0,0,1,0
F2024_10,stimuli/tones/silence.wav,1.25,23,noResp,NA,B_3,stimuli/Baron6dB/070002.wav,stimuli/Eagle/060100.wav,stimuli/Arrow/040103.wav,NA,1,silence,silence,B_3,1,0,0,1,0
F2024_10,stimuli/tones/silence.wav,0.75,24,noResp,NA,W_3,stimuli/Baron6dB/070102.wav,stimuli/Eagle/060002.wav,stimuli/Ringo/010201.wav,NA,1,silence,silence,R_3,0,0,0,1,0
F2024_10,stimuli/tones/silence.wav,1.25,25,noResp,NA,B_1,stimuli/Baron6dB/070000.wav,stimuli/Charlie/000301.wav,stimuli/Tiger/050101.wav,NA,1,silence,silence,B_1,1,0,0,1,0
F2024_10,stimuli/tones/silence.wav,2,26,noResp,NA,B_4,stimuli/Baron6dB/070003.wav,stimuli/Charlie/000201.wav,stimuli/Laker/020100.wav,NA,1,silence,silence,B_4,1,0,0,1,0
F2024_10,stimuli/tones/FlatIEC-21dB.wav,0.75,27,space,1.7325,R_1,stimuli/Baron6dB/070100.wav,stimuli/Eagle/060202.wav,stimuli/Arrow/040200.wav,NA,1,-21dB,Flat,R_1,1,1,0,0,0
F2024_10,stimuli/tones/FlatIEC-30dB.wav,2,28,space,2.6831,W_1,stimuli/Baron6dB/070200.wav,stimuli/Charlie/000200.wav,stimuli/Laker/020000.wav,NA,1,-30dB,Flat,W_1,1,1,0,0,0
F2024_10,stimuli/tones/silence.wav,2,29,noResp,NA,W_3,stimuli/Baron6dB/070202.wav,stimuli/Laker/020303.wav,stimuli/Tiger/050301.wav,NA,1,silence,silence,W_3,1,0,0,1,0
F2024_10,stimuli/tones/PercTri-30dB.wav,0.75,30,space,1.2039,W_2,stimuli/Baron6dB/070101.wav,stimuli/Eagle/060102.wav,stimuli/Ringo/010203.wav,NA,1,-30dB,PercTri,R_2,0,1,0,0,0
F2024_10,stimuli/tones/silence.wav,1.25,31,noResp,NA,R_3,stimuli/Baron6dB/070301.wav,stimuli/Arrow/040002.wav,stimuli/Hopper/030102.wav,NA,1,silence,silence,G_2,0,0,0,1,0
F2024_10,stimuli/tones/silence.wav,0.75,32,noResp,NA,W_4,stimuli/Baron6dB/070100.wav,stimuli/Hopper/030202.wav,stimuli/Hopper/030003.wav,NA,1,silence,silence,R_1,0,0,0,1,0
F2024_10,stimuli/tones/silence.wav,1.25,33,noResp,NA,B_1,stimuli/Baron6dB/070000.wav,stimuli/Charlie/000000.wav,stimuli/Hopper/030200.wav,NA,1,silence,silence,B_1,1,0,0,1,0
F2024_10,stimuli/tones/silence.wav,2,34,noResp,NA,W_4,stimuli/Baron6dB/070203.wav,stimuli/Arrow/040003.wav,stimuli/Hopper/030100.wav,NA,1,silence,silence,W_4,1,0,0,1,0
F2024_10,stimuli/tones/FlatIEC-21dB.wav,0.75,35,space,1.243,B_4,stimuli/Baron6dB/070003.wav,stimuli/Hopper/030100.wav,stimuli/Eagle/060001.wav,NA,1,-21dB,Flat,B_4,1,1,0,0,0
F2024_10,stimuli/tones/silence.wav,2,36,noResp,NA,G_3,stimuli/Baron6dB/070302.wav,stimuli/Eagle/060303.wav,stimuli/Hopper/030302.wav,NA,1,silence,silence,G_3,1,0,0,1,0
F2024_10,stimuli/tones/FlatIEC-18dB.wav,1.25,37,space,3.0192,G_1,stimuli/Baron6dB/070300.wav,stimuli/Arrow/040303.wav,stimuli/Eagle/060100.wav,NA,1,-18dB,Flat,G_1,1,1,0,0,0
F2024_10,stimuli/tones/FlatIEC-18dB.wav,0.75,38,space,1.2278,G_2,stimuli/Baron6dB/070301.wav,stimuli/Tiger/050000.wav,stimuli/Ringo/010301.wav,NA,1,-18dB,Flat,G_2,1,1,0,0,0
F2024_10,stimuli/tones/silence.wav,0.75,39,noResp,NA,W_3,stimuli/Baron6dB/070202.wav,stimuli/Tiger/050303.wav,stimuli/Eagle/060302.wav,NA,1,silence,silence,W_3,1,0,0,1,0
F2024_10,stimuli/tones/FlatIEC-21dB.wav,1.25,40,space,2.4768,R_1,stimuli/Baron6dB/070103.wav,stimuli/Laker/020202.wav,stimuli/Charlie/000100.wav,NA,1,-21dB,Flat,R_4,0,1,0,0,0
F2024_10,stimuli/tones/PercTri-33dB.wav,1.25,41,space,1.815,G_4,stimuli/Baron6dB/070303.wav,stimuli/Arrow/040200.wav,stimuli/Tiger/050201.wav,NA,1,-33dB,PercTri,G_4,1,1,0,0,0
F2024_10,stimuli/tones/silence.wav,0.75,42,noResp,NA,R_3,stimuli/Baron6dB/070102.wav,stimuli/Tiger/050103.wav,stimuli/Charlie/000202.wav,NA,1,silence,silence,R_3,1,0,0,1,0
F2024_10,stimuli/tones/PercTri-24dB.wav,0.75,43,space,1.2675,W_1,stimuli/Baron6dB/070200.wav,stimuli/Ringo/010203.wav,stimuli/Ringo/010303.wav,NA,1,-24dB,PercTri,W_1,1,1,0,0,0
F2024_10,stimuli/tones/silence.wav,2,44,space,2.5661,B_3,stimuli/Baron6dB/070002.wav,stimuli/Tiger/050001.wav,stimuli/Eagle/060300.wav,NA,0,silence,silence,B_3,1,0,0,0,1
F2024_10,stimuli/tones/PercTri-18dB.wav,1.25,45,space,1.5938,W_2,stimuli/Baron6dB/070201.wav,stimuli/Ringo/010301.wav,stimuli/Tiger/050102.wav,NA,1,-18dB,PercTri,W_2,1,1,0,0,0
F2024_10,stimuli/tones/silence.wav,2,46,noResp,NA,B_2,stimuli/Baron6dB/070001.wav,stimuli/Charlie/000103.wav,stimuli/Ringo/010100.wav,NA,1,silence,silence,B_2,1,0,0,1,0
F2024_10,stimuli/tones/PercTri-18dB.wav,1.25,47,space,1.627,R_2,stimuli/Baron6dB/070101.wav,stimuli/Charlie/000302.wav,stimuli/Charlie/000000.wav,NA,1,-18dB,PercTri,R_2,1,1,0,0,0
F2024_10,stimuli/tones/silence.wav,2,48,noResp,NA,R_2,stimuli/Baron6dB/070101.wav,stimuli/Eagle/060300.wav,stimuli/Ringo/010003.wav,NA,1,silence,silence,R_2,1,0,0,1,0
F2024_10,stimuli/tones/silence.wav,0.75,49,noResp,NA,W_3,stimuli/Baron6dB/070202.wav,stimuli/Tiger/050201.wav,stimuli/Laker/020200.wav,NA,1,silence,silence,W_3,1,0,0,1,0
F2024_10,stimuli/tones/PercTri-30dB.wav,1.25,50,space,1.5587,G_3,stimuli/Baron6dB/070302.wav,stimuli/Ringo/010302.wav,stimuli/Laker/020003.wav,NA,1,-30dB,PercTri,G_3,1,1,0,0,0
F2024_10,stimuli/tones/FlatIEC-27dB.wav,0.75,51,noResp,NA,G_4,stimuli/Baron6dB/070303.wav,stimuli/Ringo/010303.wav,stimuli/Ringo/010001.wav,NA,0,-27dB,Flat,G_4,1,0,1,0,0
F2024_10,stimuli/tones/silence.wav,0.75,52,noResp,NA,G_1,stimuli/Baron6dB/070300.wav,stimuli/Ringo/010300.wav,stimuli/Arrow/040201.wav,NA,1,silence,silence,G_1,1,0,0,1,0
F2024_10,stimuli/tones/PercTri-18dB.wav,0.75,53,space,1.1334,B_4,stimuli/Baron6dB/070003.wav,stimuli/Hopper/030201.wav,stimuli/Charlie/000103.wav,NA,1,-18dB,PercTri,B_4,1,1,0,0,0
F2024_10,stimuli/tones/FlatIEC-33dB.wav,2,54,space,2.5979,G_2,stimuli/Baron6dB/070301.wav,stimuli/Hopper/030200.wav,stimuli/Arrow/040300.wav,NA,1,-33dB,Flat,G_2,1,1,0,0,0
F2024_10,stimuli/tones/FlatIEC-30dB.wav,0.75,55,noResp,NA,B_2,stimuli/Baron6dB/070001.wav,stimuli/Hopper/030301.wav,stimuli/Laker/020002.wav,NA,0,-30dB,Flat,B_2,1,0,1,0,0
F2024_10,stimuli/tones/PercTri-21dB.wav,0.75,56,space,1.1166,W_2,stimuli/Baron6dB/070201.wav,stimuli/Ringo/010202.wav,stimuli/Charlie/000003.wav,NA,1,-21dB,PercTri,W_2,1,1,0,0,0
F2024_10,stimuli/tones/PercTri-27dB.wav,2,57,space,2.6342,W_4,stimuli/Baron6dB/070103.wav,stimuli/Laker/020003.wav,stimuli/Tiger/050000.wav,NA,1,-27dB,PercTri,R_4,0,1,0,0,0
F2024_10,stimuli/tones/PercTri-27dB.wav,0.75,58,space,1.4563,G_3,stimuli/Baron6dB/070102.wav,stimuli/Laker/020300.wav,stimuli/Eagle/060201.wav,NA,1,-27dB,PercTri,R_3,0,1,0,0,0
F2024_10,stimuli/tones/silence.wav,1.25,59,noResp,NA,B_1,stimuli/Baron6dB/070000.wav,stimuli/Arrow/040101.wav,stimuli/Eagle/060003.wav,NA,1,silence,silence,B_1,1,0,0,1,0
F2024_10,stimuli/tones/silence.wav,1.25,60,noResp,NA,B_3,stimuli/Baron6dB/070002.wav,stimuli/Laker/020001.wav,stimuli/Arrow/040101.wav,NA,1,silence,silence,B_3,1,0,0,1,0
F2024_10,stimuli/tones/silence.wav,1.25,61,noResp,NA,W_4,stimuli/Baron6dB/070203.wav,stimuli/Ringo/010102.wav,stimuli/Hopper/030303.wav,NA,1,silence,silence,W_4,1,0,0,1,0
F2024_10,stimuli/tones/PercTri-27dB.wav,2,62,space,2.6709,W_1,stimuli/Baron6dB/070200.wav,stimuli/Tiger/050203.wav,stimuli/Hopper/030300.wav,NA,1,-27dB,PercTri,W_1,1,1,0,0,0
F2024_10,stimuli/tones/FlatIEC-24dB.wav,1.25,63,space,4.1953,R_1,stimuli/Baron6dB/070100.wav,stimuli/Charlie/000101.wav,stimuli/Eagle/060202.wav,NA,1,-24dB,Flat,R_1,1,1,0,0,0
F2024_10,stimuli/tones/silence.wav,1.25,64,noResp,NA,G_3,stimuli/Baron6dB/070302.wav,stimuli/Hopper/030003.wav,stimuli/Tiger/050302.wav,NA,1,silence,silence,G_3,1,0,0,1,0
F2024_10,stimuli/tones/silence.wav,1.25,65,noResp,NA,R_1,stimuli/Baron6dB/070100.wav,stimuli/Ringo/010201.wav,stimuli/Ringo/010300.wav,NA,1,silence,silence,R_1,1,0,0,1,0
F2024_10,stimuli/tones/FlatIEC-18dB.wav,0.75,66,space,1.676,G_2,stimuli/Baron6dB/070301.wav,stimuli/Ringo/010001.wav,stimuli/Eagle/060200.wav,NA,1,-18dB,Flat,G_2,1,1,0,0,0
F2024_10,stimuli/tones/PercTri-33dB.wav,1.25,67,space,2.792,W_1,stimuli/Baron6dB/070200.wav,stimuli/Eagle/060101.wav,stimuli/Tiger/050203.wav,NA,1,-33dB,PercTri,W_1,1,1,0,0,0
F2024_10,stimuli/tones/PercTri-27dB.wav,0.75,68,space,2.0612,G_4,stimuli/Baron6dB/070303.wav,stimuli/Hopper/030300.wav,stimuli/Hopper/030202.wav,NA,1,-27dB,PercTri,G_4,1,1,0,0,0
F2024_10,stimuli/tones/silence.wav,2,69,noResp,NA,R_3,stimuli/Baron6dB/070102.wav,stimuli/Tiger/050300.wav,stimuli/Laker/020101.wav,NA,1,silence,silence,R_3,1,0,0,1,0
F2024_10,stimuli/tones/silence.wav,1.25,70,noResp,NA,B_1,stimuli/Baron6dB/070000.wav,stimuli/Eagle/060302.wav,stimuli/Laker/020203.wav,NA,1,silence,silence,B_1,1,0,0,1,0
F2024_10,stimuli/tones/silence.wav,2,71,noResp,NA,G_1,stimuli/Baron6dB/070300.wav,stimuli/Ringo/010101.wav,stimuli/Eagle/060103.wav,NA,1,silence,silence,G_1,1,0,0,1,0
F2024_10,stimuli/tones/PercTri-33dB.wav,0.75,72,space,1.1686,B_4,stimuli/Baron6dB/070003.wav,stimuli/Laker/020203.wav,stimuli/Arrow/040000.wav,NA,1,-33dB,PercTri,B_4,1,1,0,0,0
F2024_10,stimuli/tones/silence.wav,0.75,73,noResp,NA,R_4,stimuli/Baron6dB/070103.wav,stimuli/Arrow/040301.wav,stimuli/Charlie/000200.wav,NA,1,silence,silence,R_4,1,0,0,1,0
F2024_10,stimuli/tones/silence.wav,2,74,noResp,NA,B_2,stimuli/Baron6dB/070001.wav,stimuli/Hopper/030303.wav,stimuli/Hopper/030201.wav,NA,1,silence,silence,B_2,1,0,0,1,0
F2024_10,stimuli/tones/silence.wav,0.75,75,noResp,NA,R_2,stimuli/Baron6dB/070101.wav,stimuli/Ringo/010003.wav,stimuli/Eagle/060101.wav,NA,1,silence,silence,R_2,1,0,0,1,0
F2024_10,stimuli/tones/FlatIEC-33dB.wav,2,76,space,2.8102,W_2,stimuli/Baron6dB/070201.wav,stimuli/Arrow/040103.wav,stimuli/Charlie/000303.wav,NA,1,-33dB,Flat,W_2,1,1,0,0,0
F2024_10,stimuli/tones/FlatIEC-27dB.wav,1.25,77,space,2.7274,W_3,stimuli/Baron6dB/070202.wav,stimuli/Eagle/060203.wav,stimuli/Hopper/030000.wav,NA,1,-27dB,Flat,W_3,1,1,0,0,0
F2024_10,stimuli/tones/FlatIEC-18dB.wav,1.25,78,space,2.3486,W_4,stimuli/Baron6dB/070203.wav,stimuli/Tiger/050002.wav,stimuli/Charlie/000203.wav,NA,1,-18dB,Flat,W_4,1,1,0,0,0
F2024_10,stimuli/tones/PercTri-30dB.wav,0.75,79,space,1.423,B_3,stimuli/Baron6dB/070002.wav,stimuli/Laker/020201.wav,stimuli/Arrow/040302.wav,NA,1,-30dB,PercTri,B_3,1,1,0,0,0
F2024_10,stimuli/tones/FlatIEC-24dB.wav,2,80,space,2.6252,B_2,stimuli/Baron6dB/070001.wav,stimuli/Tiger/050100.wav,stimuli/Arrow/040002.wav,NA,1,-24dB,Flat,B_2,1,1,0,0,0
F2024_10,stimuli/tones/silence.wav,2,81,noResp,NA,R_2,stimuli/Baron6dB/070101.wav,stimuli/Charlie/000203.wav,stimuli/Ringo/010000.wav,NA,1,silence,silence,R_2,1,0,0,1,0
F2024_10,stimuli/tones/FlatIEC-33dB.wav,1.25,82,noResp,NA,R_4,stimuli/Baron6dB/070103.wav,stimuli/Laker/020103.wav,stimuli/Tiger/050100.wav,NA,0,-33dB,Flat,R_4,1,0,1,0,0
F2024_10,stimuli/tones/PercTri-33dB.wav,0.75,83,space,1.2669,R_3,stimuli/Baron6dB/070102.wav,stimuli/Hopper/030000.wav,stimuli/Eagle/060002.wav,NA,1,-33dB,PercTri,R_3,1,1,0,0,0
F2024_10,stimuli/tones/silence.wav,2,84,noResp,NA,B_4,stimuli/Baron6dB/070003.wav,stimuli/Laker/020200.wav,stimuli/Tiger/050300.wav,NA,1,silence,silence,B_4,1,0,0,1,0
F2024_10,stimuli/tones/silence.wav,2,85,noResp,NA,G_1,stimuli/Baron6dB/070300.wav,stimuli/Tiger/050301.wav,stimuli/Laker/020202.wav,NA,1,silence,silence,G_1,1,0,0,1,0
F2024_10,stimuli/tones/silence.wav,0.75,86,noResp,NA,G_2,stimuli/Baron6dB/070301.wav,stimuli/Tiger/050003.wav,stimuli/Charlie/000300.wav,NA,1,silence,silence,G_2,1,0,0,1,0
F2024_10,stimuli/tones/silence.wav,0.75,87,noResp,NA,B_1,stimuli/Baron6dB/070000.wav,stimuli/Eagle/060000.wav,stimuli/Tiger/050001.wav,NA,1,silence,silence,B_1,1,0,0,1,0
F2024_10,stimuli/tones/silence.wav,1.25,88,noResp,NA,G_4,stimuli/Baron6dB/070303.wav,stimuli/Arrow/040300.wav,stimuli/Tiger/050202.wav,NA,1,silence,silence,G_4,1,0,0,1,0
F2024_10,stimuli/tones/silence.wav,0.75,89,noResp,NA,W_3,stimuli/Baron6dB/070202.wav,stimuli/Tiger/050102.wav,stimuli/Ringo/010002.wav,NA,1,silence,silence,W_3,1,0,0,1,0
F2024_10,stimuli/tones/PercTri-30dB.wav,2,90,space,2.5773,W_4,stimuli/Baron6dB/070203.wav,stimuli/Charlie/000303.wav,stimuli/Tiger/050103.wav,NA,1,-30dB,PercTri,W_4,1,1,0,0,0
F2024_10,stimuli/tones/FlatIEC-27dB.wav,0.75,91,noResp,NA,W_2,stimuli/Baron6dB/070201.wav,stimuli/Ringo/010000.wav,stimuli/Laker/020001.wav,NA,0,-27dB,Flat,W_2,1,0,1,0,0
F2024_10,stimuli/tones/FlatIEC-24dB.wav,0.75,92,space,1.6449,B_3,stimuli/Baron6dB/070002.wav,stimuli/Ringo/010103.wav,stimuli/Ringo/010103.wav,NA,1,-24dB,Flat,B_3,1,1,0,0,0
F2024_10,stimuli/tones/FlatIEC-21dB.wav,1.25,93,space,2.6752,W_3,stimuli/Baron6dB/070200.wav,stimuli/Eagle/060001.wav,stimuli/Arrow/040202.wav,NA,1,-21dB,Flat,W_1,0,1,0,0,0
F2024_10,stimuli/tones/silence.wav,1.25,94,noResp,NA,G_3,stimuli/Baron6dB/070302.wav,stimuli/Arrow/040302.wav,stimuli/Arrow/040001.wav,NA,1,silence,silence,G_3,1,0,0,1,0
F2024_10,stimuli/tones/silence.wav,2,95,noResp,NA,R_1,stimuli/Baron6dB/070100.wav,stimuli/Tiger/050302.wav,stimuli/Tiger/050003.wav,NA,1,silence,silence,R_1,1,0,0,1,0
F2024_10,stimuli/tones/FlatIEC-30dB.wav,1.25,96,space,2.766,G_4,stimuli/Baron6dB/070303.wav,stimuli/Eagle/060200.wav,stimuli/Laker/020301.wav,NA,1,-30dB,Flat,G_4,1,1,0,0,0
F2024_10,stimuli/tones/PercTri-24dB.wav,1.25,97,space,1.8427,G_1,stimuli/Baron6dB/070300.wav,stimuli/Charlie/000002.wav,stimuli/Laker/020102.wav,NA,1,-24dB,PercTri,G_1,1,1,0,0,0
F2024_10,stimuli/tones/PercTri-33dB.wav,1.25,98,space,2.0484,R_2,stimuli/Baron6dB/070101.wav,stimuli/Hopper/030101.wav,stimuli/Ringo/010101.wav,NA,1,-33dB,PercTri,R_2,1,1,0,0,0
F2024_10,stimuli/tones/PercTri-18dB.wav,2,99,space,2.7599,G_4,stimuli/Baron6dB/070000.wav,stimuli/Eagle/060301.wav,stimuli/Hopper/030203.wav,NA,1,-18dB,PercTri,B_1,0,1,0,0,0
F2024_10,stimuli/tones/FlatIEC-18dB.wav,1.25,100,space,2.2523,G_3,stimuli/Baron6dB/070302.wav,stimuli/Laker/020301.wav,stimuli/Arrow/040003.wav,NA,1,-18dB,Flat,G_3,1,1,0,0,0
F2024_10,stimuli/tones/silence.wav,0.75,101,noResp,NA,R_4,stimuli/Baron6dB/070103.wav,stimuli/Hopper/030302.wav,stimuli/Hopper/030002.wav,NA,1,silence,silence,R_4,1,0,0,1,0
F2024_10,stimuli/tones/FlatIEC-24dB.wav,0.75,102,space,1.2103,W_2,stimuli/Baron6dB/070201.wav,stimuli/Laker/020302.wav,stimuli/Tiger/050303.wav,NA,1,-24dB,Flat,W_2,1,1,0,0,0
F2024_10,stimuli/tones/silence.wav,1.25,103,noResp,NA,W_3,stimuli/Baron6dB/070202.wav,stimuli/Arrow/040202.wav,stimuli/Arrow/040203.wav,NA,1,silence,silence,W_3,1,0,0,1,0
F2024_10,stimuli/tones/PercTri-30dB.wav,2,104,space,2.4022,W_4,stimuli/Baron6dB/070203.wav,stimuli/Ringo/010100.wav,stimuli/Hopper/030001.wav,NA,1,-30dB,PercTri,W_4,1,1,0,0,0
F2024_10,stimuli/tones/FlatIEC-33dB.wav,1.25,105,noResp,NA,G_2,stimuli/Baron6dB/070301.wav,stimuli/Laker/020102.wav,stimuli/Arrow/040102.wav,NA,0,-33dB,Flat,G_2,1,0,1,0,0
F2024_10,stimuli/tones/PercTri-24dB.wav,0.75,106,space,1.2159,R_1,stimuli/Baron6dB/070100.wav,stimuli/Charlie/000003.wav,stimuli/Laker/020201.wav,NA,1,-24dB,PercTri,R_1,1,1,0,0,0
F2024_10,stimuli/tones/FlatIEC-27dB.wav,1.25,107,noResp,NA,G_3,stimuli/Baron6dB/070102.wav,stimuli/Hopper/030001.wav,stimuli/Eagle/060000.wav,NA,0,-27dB,Flat,R_3,0,0,1,0,0
F2024_10,stimuli/tones/PercTri-21dB.wav,2,108,space,2.5167,B_4,stimuli/Baron6dB/070003.wav,stimuli/Charlie/000102.wav,stimuli/Ringo/010102.wav,NA,1,-21dB,PercTri,B_4,1,1,0,0,0
F2024_10,stimuli/tones/PercTri-21dB.wav,0.75,109,space,1.2604,B_2,stimuli/Baron6dB/070001.wav,stimuli/Laker/020100.wav,stimuli/Charlie/000001.wav,NA,1,-21dB,PercTri,B_2,1,1,0,0,0
F2024_10,stimuli/tones/silence.wav,2,110,noResp,NA,G_1,stimuli/Baron6dB/070200.wav,stimuli/Charlie/000001.wav,stimuli/Eagle/060303.wav,NA,1,silence,silence,W_1,0,0,0,1,0
F2024_10,stimuli/tones/silence.wav,0.75,111,noResp,NA,B_3,stimuli/Baron6dB/070002.wav,stimuli/Charlie/000202.wav,stimuli/Arrow/040100.wav,NA,1,silence,silence,B_3,1,0,0,1,0
F2024_10,stimuli/tones/silence.wav,2,112,noResp,NA,W_2,stimuli/Baron6dB/070201.wav,stimuli/Laker/020301.wav,stimuli/Hopper/030201.wav,NA,1,silence,silence,W_2,1,0,0,1,0
F2024_10,stimuli/tones/FlatIEC-24dB.wav,2,113,space,2.678,B_2,stimuli/Baron6dB/070303.wav,stimuli/Eagle/060303.wav,stimuli/Hopper/030101.wav,NA,1,-24dB,Flat,G_4,0,1,0,0,0
F2024_10,stimuli/tones/FlatIEC-33dB.wav,2,114,noResp,NA,R_3,stimuli/Baron6dB/070102.wav,stimuli/Tiger/050001.wav,stimuli/Ringo/010000.wav,NA,0,-33dB,Flat,R_3,1,0,1,0,0
F2024_10,stimuli/tones/silence.wav,0.75,115,noResp,NA,B_2,stimuli/Baron6dB/070001.wav,stimuli/Hopper/030000.wav,stimuli/Laker/020002.wav,NA,1,silence,silence,B_2,1,0,0,1,0
F2024_10,stimuli/tones/FlatIEC-18dB.wav,2,116,space,2.718,G_3,stimuli/Baron6dB/070302.wav,stimuli/Charlie/000300.wav,stimuli/Laker/020100.wav,NA,1,-18dB,Flat,G_3,1,1,0,0,0
F2024_10,stimuli/tones/silence.wav,2,117,noResp,NA,R_2,stimuli/Baron6dB/070101.wav,stimuli/Ringo/010303.wav,stimuli/Eagle/060203.wav,NA,1,silence,silence,R_2,1,0,0,1,0
F2024_10,stimuli/tones/PercTri-18dB.wav,0.75,118,space,1.2282,W_3,stimuli/Baron6dB/070202.wav,stimuli/Charlie/000000.wav,stimuli/Hopper/030202.wav,NA,1,-18dB,PercTri,W_3,1,1,0,0,0
F2024_10,stimuli/tones/silence.wav,0.75,119,noResp,NA,G_2,stimuli/Baron6dB/070301.wav,stimuli/Ringo/010003.wav,stimuli/Laker/020302.wav,NA,1,silence,silence,G_2,1,0,0,1,0
F2024_10,stimuli/tones/silence.wav,0.75,120,noResp,NA,B_4,stimuli/Baron6dB/070003.wav,stimuli/Ringo/010202.wav,stimuli/Laker/020200.wav,NA,1,silence,silence,B_4,1,0,0,1,0
F2024_10,stimuli/tones/FlatIEC-30dB.wav,0.75,121,noResp,NA,R_4,stimuli/Baron6dB/070103.wav,stimuli/Hopper/030200.wav,stimuli/Tiger/050100.wav,NA,0,-30dB,Flat,R_4,1,0,1,0,0
F2024_10,stimuli/tones/silence.wav,0.75,122,noResp,NA,G_1,stimuli/Baron6dB/070100.wav,stimuli/Eagle/060201.wav,stimuli/Tiger/050001.wav,NA,1,silence,silence,R_1,0,0,0,1,0
F2024_10,stimuli/tones/FlatIEC-18dB.wav,0.75,123,space,1.785,B_3,stimuli/Baron6dB/070002.wav,stimuli/Ringo/010000.wav,stimuli/Charlie/000101.wav,NA,1,-18dB,Flat,B_3,1,1,0,0,0
F2024_10,stimuli/tones/silence.wav,1.25,124,noResp,NA,B_4,stimuli/Baron6dB/070000.wav,stimuli/Ringo/010203.wav,stimuli/Ringo/010203.wav,NA,1,silence,silence,B_1,0,0,0,1,0
F2024_10,stimuli/tones/PercTri-18dB.wav,1.25,125,space,1.6496,W_4,stimuli/Baron6dB/070203.wav,stimuli/Eagle/060003.wav,stimuli/Hopper/030303.wav,NA,1,-18dB,PercTri,W_4,1,1,0,0,0
F2024_10,stimuli/tones/silence.wav,2,126,noResp,NA,R_3,stimuli/Baron6dB/070300.wav,stimuli/Ringo/010101.wav,stimuli/Hopper/030001.wav,NA,1,silence,silence,G_1,0,0,0,1,0
F2024_10,stimuli/tones/silence.wav,0.75,127,noResp,NA,W_1,stimuli/Baron6dB/070200.wav,stimuli/Arrow/040003.wav,stimuli/Eagle/060101.wav,NA,1,silence,silence,W_1,1,0,0,1,0
F2024_10,stimuli/tones/silence.wav,0.75,128,noResp,NA,W_2,stimuli/Baron6dB/070201.wav,stimuli/Laker/020203.wav,stimuli/Laker/020300.wav,NA,1,silence,silence,W_2,1,0,0,1,0
F2024_10,stimuli/tones/silence.wav,0.75,129,noResp,NA,B_1,stimuli/Baron6dB/070000.wav,stimuli/Laker/020003.wav,stimuli/Eagle/060303.wav,NA,1,silence,silence,B_1,1,0,0,1,0
F2024_10,stimuli/tones/silence.wav,0.75,130,noResp,NA,R_4,stimuli/Baron6dB/070103.wav,stimuli/Laker/020002.wav,stimuli/Arrow/040101.wav,NA,1,silence,silence,R_4,1,0,0,1,0
F2024_10,stimuli/tones/silence.wav,2,131,noResp,NA,R_1,stimuli/Baron6dB/070100.wav,stimuli/Tiger/050002.wav,stimuli/Hopper/030301.wav,NA,1,silence,silence,R_1,1,0,0,1,0
F2024_10,stimuli/tones/PercTri-24dB.wav,1.25,132,space,1.5743,B_4,stimuli/Baron6dB/070003.wav,stimuli/Charlie/000002.wav,stimuli/Ringo/010300.wav,NA,1,-24dB,PercTri,B_4,1,1,0,0,0
F2024_10,stimuli/tones/silence.wav,1.25,133,noResp,NA,W_1,stimuli/Baron6dB/070200.wav,stimuli/Ringo/010103.wav,stimuli/Eagle/060003.wav,NA,1,silence,silence,W_1,1,0,0,1,0
F2024_10,stimuli/tones/silence.wav,1.25,134,noResp,NA,R_3,stimuli/Baron6dB/070102.wav,stimuli/Charlie/000102.wav,stimuli/Arrow/040301.wav,NA,1,silence,silence,R_3,1,0,0,1,0
F2024_10,stimuli/tones/PercTri-21dB.wav,1.25,135,space,2.8449,W_4,stimuli/Baron6dB/070203.wav,stimuli/Laker/020303.wav,stimuli/Ringo/010002.wav,NA,1,-21dB,PercTri,W_4,1,1,0,0,0
F2024_10,stimuli/tones/silence.wav,1.25,136,noResp,NA,B_2,stimuli/Baron6dB/070001.wav,stimuli/Charlie/000103.wav,stimuli/Laker/020000.wav,NA,1,silence,silence,B_2,1,0,0,1,0
F2024_10,stimuli/tones/FlatIEC-24dB.wav,0.75,137,noResp,NA,G_1,stimuli/Baron6dB/070300.wav,stimuli/Tiger/050203.wav,stimuli/Laker/020303.wav,NA,0,-24dB,Flat,G_1,1,0,1,0,0
F2024_10,stimuli/tones/FlatIEC-21dB.wav,0.75,138,space,1.6134,R_2,stimuli/Baron6dB/070101.wav,stimuli/Eagle/060100.wav,stimuli/Charlie/000102.wav,NA,1,-21dB,Flat,R_2,1,1,0,0,0
F2024_10,stimuli/tones/PercTri-18dB.wav,2,139,space,2.9477,G_4,stimuli/Baron6dB/070303.wav,stimuli/Arrow/040100.wav,stimuli/Eagle/060002.wav,NA,1,-18dB,PercTri,G_4,1,1,0,0,0
F2024_10,stimuli/tones/FlatIEC-18dB.wav,2,140,noResp,NA,B_3,stimuli/Baron6dB/070002.wav,stimuli/Laker/020001.wav,stimuli/Charlie/000000.wav,NA,0,-18dB,Flat,B_3,1,0,1,0,0
F2024_10,stimuli/tones/silence.wav,2,141,noResp,NA,R_3,stimuli/Baron6dB/070302.wav,stimuli/Hopper/030101.wav,stimuli/Eagle/060100.wav,NA,1,silence,silence,G_3,0,0,0,1,0
F2024_10,stimuli/tones/silence.wav,1.25,142,space,2.9592,G_2,stimuli/Baron6dB/070301.wav,stimuli/Charlie/000003.wav,stimuli/Tiger/050203.wav,NA,0,silence,silence,G_2,1,0,0,0,1
F2024_10,stimuli/tones/silence.wav,2,143,noResp,NA,W_3,stimuli/Baron6dB/070202.wav,stimuli/Charlie/000301.wav,stimuli/Arrow/040202.wav,NA,1,silence,silence,W_3,1,0,0,1,0
F2024_10,stimuli/tones/FlatIEC-21dB.wav,2,144,space,2.6094,B_3,stimuli/Baron6dB/070302.wav,stimuli/Hopper/030300.wav,stimuli/Tiger/050303.wav,NA,1,-21dB,Flat,G_3,0,1,0,0,0
F2024_10,stimuli/tones/silence.wav,2,145,noResp,NA,G_4,stimuli/Baron6dB/070303.wav,stimuli/Charlie/000001.wav,stimuli/Hopper/030300.wav,NA,1,silence,silence,G_4,1,0,0,1,0
F2024_10,stimuli/tones/silence.wav,2,146,noResp,NA,B_4,stimuli/Baron6dB/070003.wav,stimuli/Arrow/040203.wav,stimuli/Hopper/030103.wav,NA,1,silence,silence,B_4,1,0,0,1,0
F2024_10,stimuli/tones/PercTri-24dB.wav,2,147,space,2.5999,R_1,stimuli/Baron6dB/070100.wav,stimuli/Ringo/010001.wav,stimuli/Charlie/000300.wav,NA,1,-24dB,PercTri,R_1,1,1,0,0,0
F2024_10,stimuli/tones/silence.wav,1.25,148,noResp,NA,G_2,stimuli/Baron6dB/070301.wav,stimuli/Arrow/040300.wav,stimuli/Tiger/050300.wav,NA,1,silence,silence,G_2,1,0,0,1,0
F2024_10,stimuli/tones/FlatIEC-33dB.wav,0.75,149,noResp,NA,B_3,stimuli/Baron6dB/070002.wav,stimuli/Ringo/010302.wav,stimuli/Arrow/040203.wav,NA,0,-33dB,Flat,B_3,1,0,1,0,0
F2024_10,stimuli/tones/FlatIEC-27dB.wav,1.25,150,space,2.6612,R_3,stimuli/Baron6dB/070102.wav,stimuli/Ringo/010201.wav,stimuli/Arrow/040001.wav,NA,1,-27dB,Flat,R_3,1,1,0,0,0
F2024_10,stimuli/tones/silence.wav,1.25,151,noResp,NA,W_3,stimuli/Baron6dB/070202.wav,stimuli/Ringo/010301.wav,stimuli/Laker/020102.wav,NA,1,silence,silence,W_3,1,0,0,1,0
F2024_10,stimuli/tones/silence.wav,1.25,152,noResp,NA,R_4,stimuli/Baron6dB/070103.wav,stimuli/Eagle/060200.wav,stimuli/Arrow/040002.wav,NA,1,silence,silence,R_4,1,0,0,1,0
F2024_10,stimuli/tones/silence.wav,0.75,153,noResp,NA,G_1,stimuli/Baron6dB/070300.wav,stimuli/Tiger/050301.wav,stimuli/Eagle/060000.wav,NA,1,silence,silence,G_1,1,0,0,1,0
F2024_10,stimuli/tones/silence.wav,1.25,154,noResp,NA,R_2,stimuli/Baron6dB/070001.wav,stimuli/Eagle/060103.wav,stimuli/Tiger/050000.wav,NA,1,silence,silence,B_2,0,0,0,1,0
F2024_10,stimuli/tones/silence.wav,0.75,155,noResp,NA,W_1,stimuli/Baron6dB/070200.wav,stimuli/Arrow/040302.wav,stimuli/Eagle/060201.wav,NA,1,silence,silence,W_1,1,0,0,1,0
F2024_10,stimuli/tones/silence.wav,0.75,156,noResp,NA,W_4,stimuli/Baron6dB/070203.wav,stimuli/Charlie/000202.wav,stimuli/Arrow/040300.wav,NA,1,silence,silence,W_4,1,0,0,1,0
F2024_10,stimuli/tones/FlatIEC-30dB.wav,0.75,157,noResp,NA,W_2,stimuli/Baron6dB/070201.wav,stimuli/Laker/020201.wav,stimuli/Arrow/040201.wav,NA,0,-30dB,Flat,W_2,1,0,1,0,0
F2024_10,stimuli/tones/silence.wav,0.75,158,noResp,NA,R_2,stimuli/Baron6dB/070101.wav,stimuli/Eagle/060301.wav,stimuli/Eagle/060200.wav,NA,1,silence,silence,R_2,1,0,0,1,0
F2024_10,stimuli/tones/FlatIEC-21dB.wav,1.25,159,space,1.9097,R_3,stimuli/Baron6dB/070000.wav,stimuli/Laker/020200.wav,stimuli/Charlie/000302.wav,NA,1,-21dB,Flat,B_1,0,1,0,0,0
F2024_10,stimuli/tones/FlatIEC-33dB.wav,0.75,160,noResp,NA,R_1,stimuli/Baron6dB/070100.wav,stimuli/Arrow/040000.wav,stimuli/Ringo/010301.wav,NA,0,-33dB,Flat,R_1,1,0,1,0,0
F2024_10,stimuli/tones/PercTri-21dB.wav,1.25,161,space,1.7424,G_3,stimuli/Baron6dB/070302.wav,stimuli/Hopper/030102.wav,stimuli/Hopper/030200.wav,NA,1,-21dB,PercTri,G_3,1,1,0,0,0
F2024_10,stimuli/tones/silence.wav,1.25,162,noResp,NA,W_2,stimuli/Baron6dB/070201.wav,stimuli/Tiger/050200.wav,stimuli/Charlie/000303.wav,NA,1,silence,silence,W_2,1,0,0,1,0
F2024_10,stimuli/tones/silence.wav,2,163,noResp,NA,B_4,stimuli/Baron6dB/070003.wav,stimuli/Tiger/050202.wav,stimuli/Eagle/060103.wav,NA,1,silence,silence,B_4,1,0,0,1,0
F2024_10,stimuli/tones/FlatIEC-27dB.wav,2,164,noResp,NA,R_3,stimuli/Baron6dB/070102.wav,stimuli/Charlie/000101.wav,stimuli/Laker/020103.wav,NA,0,-27dB,Flat,R_3,1,0,1,0,0
F2024_10,stimuli/tones/silence.wav,1.25,165,noResp,NA,W_4,stimuli/Baron6dB/070203.wav,stimuli/Hopper/030202.wav,stimuli/Charlie/000100.wav,NA,1,silence,silence,W_4,1,0,0,1,0
F2024_10,stimuli/tones/silence.wav,2,166,noResp,NA,G_4,stimuli/Baron6dB/070303.wav,stimuli/Ringo/010200.wav,stimuli/Ringo/010202.wav,NA,1,silence,silence,G_4,1,0,0,1,0
F2024_10,stimuli/tones/silence.wav,0.75,167,noResp,NA,G_1,stimuli/Baron6dB/070300.wav,stimuli/Eagle/060202.wav,stimuli/Ringo/010303.wav,NA,1,silence,silence,G_1,1,0,0,1,0
F2024_10,stimuli/tones/FlatIEC-30dB.wav,1.25,168,space,3.0429,G_2,stimuli/Baron6dB/070101.wav,stimuli/Laker/020103.wav,stimuli/Charlie/000202.wav,NA,1,-30dB,Flat,R_2,0,1,0,0,0
F2024_10,stimuli/tones/PercTri-27dB.wav,0.75,169,space,1.3325,W_1,stimuli/Baron6dB/070200.wav,stimuli/Arrow/040301.wav,stimuli/Ringo/010102.wav,NA,1,-27dB,PercTri,W_1,1,1,0,0,0
F2024_10,stimuli/tones/PercTri-27dB.wav,1.25,170,space,1.6169,B_3,stimuli/Baron6dB/070002.wav,stimuli/Laker/020300.wav,stimuli/Charlie/000003.wav,NA,1,-27dB,PercTri,B_3,1,1,0,0,0
F2024_10,stimuli/tones/PercTri-30dB.wav,2,171,space,2.4314,B_1,stimuli/Baron6dB/070000.wav,stimuli/Eagle/060101.wav,stimuli/Laker/020301.wav,NA,1,-30dB,PercTri,B_1,1,1,0,0,0
F2024_10,stimuli/tones/silence.wav,1.25,172,noResp,NA,B_2,stimuli/Baron6dB/070001.wav,stimuli/Eagle/060102.wav,stimuli/Eagle/060202.wav,NA,1,silence,silence,B_2,1,0,0,1,0
F2024_10,stimuli/tones/silence.wav,0.75,173,noResp,NA,R_4,stimuli/Baron6dB/070103.wav,stimuli/Tiger/050201.wav,stimuli/Eagle/060102.wav,NA,1,silence,silence,R_4,1,0,0,1,0
F2024_10,stimuli/tones/PercTri-18dB.wav,2,174,space,2.569,W_3,stimuli/Baron6dB/070202.wav,stimuli/Tiger/050303.wav,stimuli/Tiger/050102.wav,NA,1,-18dB,PercTri,W_3,1,1,0,0,0
F2024_10,stimuli/tones/FlatIEC-30dB.wav,2,175,space,3.0652,G_2,stimuli/Baron6dB/070301.wav,stimuli/Laker/020000.wav,stimuli/Arrow/040100.wav,NA,1,-30dB,Flat,G_2,1,1,0,0,0
F2024_10,stimuli/tones/silence.wav,2,176,noResp,NA,W_1,stimuli/Baron6dB/070200.wav,stimuli/Hopper/030301.wav,stimuli/Tiger/050003.wav,NA,1,silence,silence,W_1,1,0,0,1,0
F2024_10,stimuli/tones/silence.wav,1.25,177,noResp,NA,B_2,stimuli/Baron6dB/070001.wav,stimuli/Tiger/050101.wav,stimuli/Tiger/050101.wav,NA,1,silence,silence,B_2,1,0,0,1,0
F2024_10,stimuli/tones/PercTri-30dB.wav,1.25,178,space,1.7364,G_2,stimuli/Baron6dB/070301.wav,stimuli/Charlie/000203.wav,stimuli/Tiger/050002.wav,NA,1,-30dB,PercTri,G_2,1,1,0,0,0
F2024_10,stimuli/tones/silence.wav,1.25,179,noResp,NA,W_2,stimuli/Baron6dB/070101.wav,stimuli/Tiger/050100.wav,stimuli/Hopper/030003.wav,NA,1,silence,silence,R_2,0,0,0,1,0
F2024_10,stimuli/tones/FlatIEC-27dB.wav,2,180,space,2.9915,W_3,stimuli/Baron6dB/070102.wav,stimuli/Laker/020202.wav,stimuli/Arrow/040000.wav,NA,1,-27dB,Flat,R_3,0,1,0,0,0
F2024_10,stimuli/tones/FlatIEC-24dB.wav,1.25,181,space,2.6157,W_1,stimuli/Baron6dB/070000.wav,stimuli/Arrow/040103.wav,stimuli/Hopper/030002.wav,NA,1,-24dB,Flat,B_1,0,1,0,0,0
F2024_10,stimuli/tones/FlatIEC-24dB.wav,1.25,182,noResp,NA,R_1,stimuli/Baron6dB/070100.wav,stimuli/Charlie/000201.wav,stimuli/Tiger/050302.wav,NA,0,-24dB,Flat,R_1,1,0,1,0,0
F2024_10,stimuli/tones/FlatIEC-18dB.wav,2,183,space,2.7325,W_4,stimuli/Baron6dB/070103.wav,stimuli/Ringo/010300.wav,stimuli/Laker/020203.wav,NA,1,-18dB,Flat,R_4,0,1,0,0,0
F2024_10,stimuli/tones/PercTri-24dB.wav,2,184,space,2.5436,W_2,stimuli/Baron6dB/070201.wav,stimuli/Tiger/050302.wav,stimuli/Eagle/060301.wav,NA,1,-24dB,PercTri,W_2,1,1,0,0,0
F2024_10,stimuli/tones/silence.wav,1.25,185,noResp,NA,B_3,stimuli/Baron6dB/070002.wav,stimuli/Hopper/030002.wav,stimuli/Ringo/010103.wav,NA,1,silence,silence,B_3,1,0,0,1,0
F2024_10,stimuli/tones/silence.wav,0.75,186,noResp,NA,G_4,stimuli/Baron6dB/070303.wav,stimuli/Tiger/050000.wav,stimuli/Eagle/060302.wav,NA,1,silence,silence,G_4,1,0,0,1,0
F2024_10,stimuli/tones/silence.wav,1.25,187,noResp,NA,G_1,stimuli/Baron6dB/070300.wav,stimuli/Tiger/050102.wav,stimuli/Hopper/030100.wav,NA,1,silence,silence,G_1,1,0,0,1,0
F2024_10,stimuli/tones/silence.wav,0.75,188,noResp,NA,W_4,stimuli/Baron6dB/070203.wav,stimuli/Arrow/040303.wav,stimuli/Charlie/000001.wav,NA,1,silence,silence,W_4,1,0,0,1,0
F2024_10,stimuli/tones/FlatIEC-24dB.wav,2,189,space,2.8024,G_3,stimuli/Baron6dB/070302.wav,stimuli/Hopper/030302.wav,stimuli/Laker/020101.wav,NA,1,-24dB,Flat,G_3,1,1,0,0,0
F2024_10,stimuli/tones/PercTri-27dB.wav,2,190,space,2.6761,B_4,stimuli/Baron6dB/070003.wav,stimuli/Charlie/000200.wav,stimuli/Ringo/010201.wav,NA,1,-27dB,PercTri,B_4,1,1,0,0,0
F2024_10,stimuli/tones/PercTri-27dB.wav,1.25,191,space,2.0183,W_3,stimuli/Baron6dB/070202.wav,stimuli/Arrow/040001.wav,stimuli/Charlie/000200.wav,NA,1,-27dB,PercTri,W_3,1,1,0,0,0
F2024_10,stimuli/tones/FlatIEC-27dB.wav,0.75,192,noResp,NA,R_1,stimuli/Baron6dB/070100.wav,stimuli/Charlie/000303.wav,stimuli/Arrow/040103.wav,NA,0,-27dB,Flat,R_1,1,0,1,0,0
F2024_10,stimuli/tones/FlatIEC-33dB.wav,1.25,193,noResp,NA,B_2,stimuli/Baron6dB/070001.wav,stimuli/Eagle/060302.wav,stimuli/Ringo/010100.wav,NA,0,-33dB,Flat,B_2,1,0,1,0,0
F2024_10,stimuli/tones/silence.wav,1.25,194,noResp,NA,W_2,stimuli/Baron6dB/070201.wav,stimuli/Eagle/060203.wav,stimuli/Eagle/060300.wav,NA,1,silence,silence,W_2,1,0,0,1,0
F2024_10,stimuli/tones/FlatIEC-33dB.wav,0.75,195,noResp,NA,W_3,stimuli/Baron6dB/070202.wav,stimuli/Arrow/040202.wav,stimuli/Arrow/040303.wav,NA,0,-33dB,Flat,W_3,1,0,1,0,0
F2024_10,stimuli/tones/silence.wav,0.75,196,noResp,NA,G_1,stimuli/Baron6dB/070300.wav,stimuli/Ringo/010002.wav,stimuli/Tiger/050201.wav,NA,1,silence,silence,G_1,1,0,0,1,0
F2024_10,stimuli/tones/PercTri-18dB.wav,0.75,197,space,1.2017,G_3,stimuli/Baron6dB/070302.wav,stimuli/Ringo/010102.wav,stimuli/Arrow/040102.wav,NA,1,-18dB,PercTri,G_3,1,1,0,0,0
F2024_10,stimuli/tones/silence.wav,1.25,198,noResp,NA,B_4,stimuli/Baron6dB/070003.wav,stimuli/Eagle/060000.wav,stimuli/Charlie/000002.wav,NA,1,silence,silence,B_4,1,0,0,1,0
F2024_10,stimuli/tones/silence.wav,0.75,199,noResp,NA,R_4,stimuli/Baron6dB/070103.wav,stimuli/Ringo/010100.wav,stimuli/Ringo/010003.wav,NA,1,silence,silence,R_4,1,0,0,1,0
F2024_10,stimuli/tones/silence.wav,2,200,noResp,NA,R_3,stimuli/Baron6dB/070102.wav,stimuli/Hopper/030003.wav,stimuli/Arrow/040003.wav,NA,1,silence,silence,R_3,1,0,0,1,0
F2024_10,stimuli/tones/FlatIEC-21dB.wav,2,201,space,2.6829,B_3,stimuli/Baron6dB/070002.wav,stimuli/Hopper/030100.wav,stimuli/Tiger/050202.wav,NA,1,-21dB,Flat,B_3,1,1,0,0,0
F2024_10,stimuli/tones/silence.wav,1.25,202,noResp,NA,W_4,stimuli/Baron6dB/070203.wav,stimuli/Hopper/030203.wav,stimuli/Hopper/030302.wav,NA,1,silence,silence,W_4,1,0,0,1,0
F2024_10,stimuli/tones/silence.wav,0.75,203,noResp,NA,R_2,stimuli/Baron6dB/070101.wav,stimuli/Arrow/040200.wav,stimuli/Tiger/050103.wav,NA,1,silence,silence,R_2,1,0,0,1,0
F2024_10,stimuli/tones/PercTri-21dB.wav,0.75,204,space,1.2049,B_1,stimuli/Baron6dB/070000.wav,stimuli/Hopper/030201.wav,stimuli/Charlie/000301.wav,NA,1,-21dB,PercTri,B_1,1,1,0,0,0
F2024_10,stimuli/tones/silence.wav,2,205,noResp,NA,G_2,stimuli/Baron6dB/070301.wav,stimuli/Eagle/060001.wav,stimuli/Charlie/000203.wav,NA,1,silence,silence,G_2,1,0,0,1,0
F2024_10,stimuli/tones/FlatIEC-21dB.wav,2,206,space,2.7974,G_4,stimuli/Baron6dB/070303.wav,stimuli/Tiger/050003.wav,stimuli/Arrow/040200.wav,NA,1,-21dB,Flat,G_4,1,1,0,0,0
F2024_10,stimuli/tones/PercTri-24dB.wav,0.75,207,space,1.4961,W_1,stimuli/Baron6dB/070200.wav,stimuli/Laker/020100.wav,stimuli/Hopper/030000.wav,NA,1,-24dB,PercTri,W_1,1,1,0,0,0
F2024_10,stimuli/tones/PercTri-33dB.wav,0.75,208,space,1.4602,G_3,stimuli/Baron6dB/070302.wav,stimuli/Laker/020101.wav,stimuli/Ringo/010101.wav,NA,1,-33dB,PercTri,G_3,1,1,0,0,0
F2024_10,stimuli/tones/PercTri-21dB.wav,2,209,space,2.6368,B_1,stimuli/Baron6dB/070000.wav,stimuli/Tiger/050300.wav,stimuli/Charlie/000201.wav,NA,1,-21dB,PercTri,B_1,1,1,0,0,0
F2024_10,stimuli/tones/silence.wav,2,210,noResp,NA,W_3,stimuli/Baron6dB/070202.wav,stimuli/Eagle/060300.wav,stimuli/Hopper/030203.wav,NA,1,silence,silence,W_3,1,0,0,1,0
F2024_10,stimuli/tones/silence.wav,0.75,211,noResp,NA,R_1,stimuli/Baron6dB/070100.wav,stimuli/Hopper/030103.wav,stimuli/Ringo/010302.wav,NA,1,silence,silence,R_1,1,0,0,1,0
F2024_10,stimuli/tones/silence.wav,2,212,noResp,NA,W_2,stimuli/Baron6dB/070201.wav,stimuli/Arrow/040102.wav,stimuli/Tiger/050200.wav,NA,1,silence,silence,W_2,1,0,0,1,0
F2024_10,stimuli/tones/silence.wav,0.75,213,noResp,NA,W_4,stimuli/Baron6dB/070203.wav,stimuli/Eagle/060002.wav,stimuli/Arrow/040302.wav,NA,1,silence,silence,W_4,1,0,0,1,0
F2024_10,stimuli/tones/PercTri-27dB.wav,1.25,214,space,1.6002,R_4,stimuli/Baron6dB/070103.wav,stimuli/Hopper/030001.wav,stimuli/Ringo/010200.wav,NA,1,-27dB,PercTri,R_4,1,1,0,0,0
F2024_10,stimuli/tones/PercTri-24dB.wav,2,215,space,2.5257,B_4,stimuli/Baron6dB/070003.wav,stimuli/Arrow/040201.wav,stimuli/Laker/020201.wav,NA,1,-24dB,PercTri,B_4,1,1,0,0,0
F2024_11,stimuli/tones/FlatIEC-27dB.wav,0.75,0,noResp,NA,B_2,stimuli/Baron6dB/070001.wav,stimuli/Tiger/050102.wav,stimuli/Charlie/000002.wav,NA,0,-27dB,Flat,B_2,1,0,1,0,0
F2024_11,stimuli/tones/FlatIEC-24dB.wav,1.25,1,space,2.588,W_3,stimuli/Baron6dB/070202.wav,stimuli/Hopper/030001.wav,stimuli/Ringo/010303.wav,NA,1,-24dB,Flat,W_3,1,1,0,0,0
F2024_11,stimuli/tones/silence.wav,1.25,2,noResp,NA,W_2,stimuli/Baron6dB/070201.wav,stimuli/Arrow/040202.wav,stimuli/Laker/020201.wav,NA,1,silence,silence,W_2,1,0,0,1,0
F2024_11,stimuli/tones/FlatIEC-30dB.wav,2,3,space,2.5591,G_1,stimuli/Baron6dB/070300.wav,stimuli/Eagle/060003.wav,stimuli/Arrow/040302.wav,NA,1,-30dB,Flat,G_1,1,1,0,0,0
F2024_11,stimuli/tones/PercTri-33dB.wav,1.25,4,space,3.0343,R_3,stimuli/Baron6dB/070102.wav,stimuli/Hopper/030300.wav,stimuli/Laker/020202.wav,NA,1,-33dB,PercTri,R_3,1,1,0,0,0
F2024_11,stimuli/tones/silence.wav,0.75,5,noResp,NA,W_4,stimuli/Baron6dB/070203.wav,stimuli/Arrow/040302.wav,stimuli/Arrow/040103.wav,NA,1,silence,silence,W_4,1,0,0,1,0
F2024_11,stimuli/tones/FlatIEC-18dB.wav,0.75,6,space,2.4183,B_4,stimuli/Baron6dB/070003.wav,stimuli/Eagle/060002.wav,stimuli/Charlie/000202.wav,NA,1,-18dB,Flat,B_4,1,1,0,0,0
F2024_11,stimuli/tones/silence.wav,0.75,7,noResp,NA,R_2,stimuli/Baron6dB/070101.wav,stimuli/Eagle/060303.wav,stimuli/Eagle/060303.wav,NA,1,silence,silence,R_2,1,0,0,1,0
F2024_11,stimuli/tones/silence.wav,1.25,8,noResp,NA,G_2,stimuli/Baron6dB/070301.wav,stimuli/Arrow/040203.wav,stimuli/Arrow/040100.wav,NA,1,silence,silence,G_2,1,0,0,1,0
F2024_11,stimuli/tones/silence.wav,2,9,space,2.8578,G_4,stimuli/Baron6dB/070303.wav,stimuli/Hopper/030000.wav,stimuli/Charlie/000201.wav,NA,0,silence,silence,G_4,1,0,0,0,1
F2024_11,stimuli/tones/PercTri-27dB.wav,0.75,10,space,2.0675,R_4,stimuli/Baron6dB/070103.wav,stimuli/Arrow/040103.wav,stimuli/Laker/020003.wav,NA,1,-27dB,PercTri,R_4,1,1,0,0,0
F2024_11,stimuli/tones/PercTri-18dB.wav,1.25,11,space,1.9108,B_1,stimuli/Baron6dB/070000.wav,stimuli/Arrow/040102.wav,stimuli/Arrow/040001.wav,NA,1,-18dB,PercTri,B_1,1,1,0,0,0
F2024_11,stimuli/tones/silence.wav,0.75,12,noResp,NA,W_1,stimuli/Baron6dB/070200.wav,stimuli/Charlie/000201.wav,stimuli/Eagle/060101.wav,NA,1,silence,silence,W_1,1,0,0,1,0
F2024_11,stimuli/tones/silence.wav,1.25,13,space,2.3505,B_3,stimuli/Baron6dB/070002.wav,stimuli/Hopper/030102.wav,stimuli/Hopper/030301.wav,NA,0,silence,silence,B_3,1,0,0,0,1
F2024_11,stimuli/tones/silence.wav,2,14,noResp,NA,R_1,stimuli/Baron6dB/070100.wav,stimuli/Laker/020100.wav,stimuli/Laker/020302.wav,NA,1,silence,silence,R_1,1,0,0,1,0
F2024_11,stimuli/tones/silence.wav,0.75,15,noResp,NA,G_2,stimuli/Baron6dB/070302.wav,stimuli/Eagle/060200.wav,stimuli/Eagle/060301.wav,NA,1,silence,silence,G_3,0,0,0,1,0
F2024_11,stimuli/tones/silence.wav,2,16,noResp,NA,B_4,stimuli/Baron6dB/070003.wav,stimuli/Laker/020000.wav,stimuli/Laker/020303.wav,NA,1,silence,silence,B_4,1,0,0,1,0
F2024_11,stimuli/tones/silence.wav,0.75,17,noResp,NA,R_1,stimuli/Baron6dB/070100.wav,stimuli/Arrow/040200.wav,stimuli/Arrow/040203.wav,NA,1,silence,silence,R_1,1,0,0,1,0
F2024_11,stimuli/tones/FlatIEC-18dB.wav,2,18,space,3.7155,G_3,stimuli/Baron6dB/070302.wav,stimuli/Arrow/040300.wav,stimuli/Hopper/030103.wav,NA,1,-18dB,Flat,G_3,1,1,0,0,0
F2024_11,stimuli/tones/PercTri-30dB.wav,1.25,19,noResp,NA,G_2,stimuli/Baron6dB/070301.wav,stimuli/Hopper/030200.wav,stimuli/Ringo/010000.wav,NA,0,-30dB,PercTri,G_2,1,0,1,0,0
F2024_11,stimuli/tones/PercTri-21dB.wav,2,20,space,2.5151,R_4,stimuli/Baron6dB/070103.wav,stimuli/Laker/020300.wav,stimuli/Hopper/030202.wav,NA,1,-21dB,PercTri,R_4,1,1,0,0,0
F2024_11,stimuli/tones/PercTri-27dB.wav,0.75,21,space,1.5603,B_1,stimuli/Baron6dB/070000.wav,stimuli/Ringo/010002.wav,stimuli/Hopper/030101.wav,NA,1,-27dB,PercTri,B_1,1,1,0,0,0
F2024_11,stimuli/tones/silence.wav,1.25,22,noResp,NA,R_2,stimuli/Baron6dB/070101.wav,stimuli/Arrow/040001.wav,stimuli/Eagle/060102.wav,NA,1,silence,silence,R_2,1,0,0,1,0
F2024_11,stimuli/tones/silence.wav,2,23,noResp,NA,B_2,stimuli/Baron6dB/070001.wav,stimuli/Hopper/030301.wav,stimuli/Tiger/050303.wav,NA,1,silence,silence,B_2,1,0,0,1,0
F2024_11,stimuli/tones/PercTri-21dB.wav,1.25,24,space,1.8207,B_3,stimuli/Baron6dB/070002.wav,stimuli/Ringo/010100.wav,stimuli/Tiger/050300.wav,NA,1,-21dB,PercTri,B_3,1,1,0,0,0
F2024_11,stimuli/tones/FlatIEC-18dB.wav,1.25,25,space,3.3328,W_2,stimuli/Baron6dB/070201.wav,stimuli/Charlie/000300.wav,stimuli/Eagle/060003.wav,NA,1,-18dB,Flat,W_2,1,1,0,0,0
F2024_11,stimuli/tones/PercTri-18dB.wav,2,26,space,2.7151,W_3,stimuli/Baron6dB/070202.wav,stimuli/Charlie/000203.wav,stimuli/Tiger/050202.wav,NA,1,-18dB,PercTri,W_3,1,1,0,0,0
F2024_11,stimuli/tones/silence.wav,2,27,space,2.6924,G_1,stimuli/Baron6dB/070300.wav,stimuli/Charlie/000100.wav,stimuli/Hopper/030200.wav,NA,0,silence,silence,G_1,1,0,0,0,1
F2024_11,stimuli/tones/PercTri-30dB.wav,2,28,space,2.6112,R_3,stimuli/Baron6dB/070102.wav,stimuli/Tiger/050200.wav,stimuli/Eagle/060001.wav,NA,1,-30dB,PercTri,R_3,1,1,0,0,0
F2024_11,stimuli/tones/PercTri-21dB.wav,2,29,space,2.3948,W_1,stimuli/Baron6dB/070200.wav,stimuli/Charlie/000302.wav,stimuli/Hopper/030302.wav,NA,1,-21dB,PercTri,W_1,1,1,0,0,0
F2024_11,stimuli/tones/PercTri-30dB.wav,2,30,space,3.2513,W_4,stimuli/Baron6dB/070303.wav,stimuli/Hopper/030303.wav,stimuli/Tiger/050000.wav,NA,1,-30dB,PercTri,G_4,0,1,0,0,0
F2024_11,stimuli/tones/silence.wav,0.75,31,noResp,NA,W_4,stimuli/Baron6dB/070203.wav,stimuli/Eagle/060203.wav,stimuli/Laker/020203.wav,NA,1,silence,silence,W_4,1,0,0,1,0
F2024_11,stimuli/tones/FlatIEC-30dB.wav,1.25,32,space,2.7919,R_2,stimuli/Baron6dB/070101.wav,stimuli/Laker/020103.wav,stimuli/Arrow/040202.wav,NA,1,-30dB,Flat,R_2,1,1,0,0,0
F2024_11,stimuli/tones/FlatIEC-33dB.wav,2,33,space,4.5826,G_4,stimuli/Baron6dB/070303.wav,stimuli/Laker/020301.wav,stimuli/Eagle/060202.wav,NA,1,-33dB,Flat,G_4,1,1,0,0,0
F2024_11,stimuli/tones/silence.wav,2,34,noResp,NA,W_1,stimuli/Baron6dB/070200.wav,stimuli/Laker/020302.wav,stimuli/Hopper/030002.wav,NA,1,silence,silence,W_1,1,0,0,1,0
F2024_11,stimuli/tones/PercTri-21dB.wav,0.75,35,space,1.4367,B_3,stimuli/Baron6dB/070002.wav,stimuli/Tiger/050201.wav,stimuli/Arrow/040300.wav,NA,1,-21dB,PercTri,B_3,1,1,0,0,0
F2024_11,stimuli/tones/silence.wav,0.75,36,noResp,NA,W_3,stimuli/Baron6dB/070202.wav,stimuli/Laker/020201.wav,stimuli/Arrow/040201.wav,NA,1,silence,silence,W_3,1,0,0,1,0
F2024_11,stimuli/tones/silence.wav,2,37,space,0.1448,G_2,stimuli/Baron6dB/070301.wav,stimuli/Charlie/000003.wav,stimuli/Ringo/010003.wav,NA,0,silence,silence,G_2,1,0,0,0,1
F2024_11,stimuli/tones/PercTri-18dB.wav,0.75,38,space,3.0259,R_3,stimuli/Baron6dB/070102.wav,stimuli/Ringo/010003.wav,stimuli/Ringo/010102.wav,NA,1,-18dB,PercTri,R_3,1,1,0,0,0
F2024_11,stimuli/tones/FlatIEC-33dB.wav,0.75,39,noResp,NA,B_1,stimuli/Baron6dB/070000.wav,stimuli/Eagle/060000.wav,stimuli/Charlie/000300.wav,NA,0,-33dB,Flat,B_1,1,0,1,0,0
F2024_11,stimuli/tones/silence.wav,1.25,40,noResp,NA,W_4,stimuli/Baron6dB/070203.wav,stimuli/Laker/020303.wav,stimuli/Arrow/040303.wav,NA,1,silence,silence,W_4,1,0,0,1,0
F2024_11,stimuli/tones/silence.wav,1.25,41,space,3.627,W_2,stimuli/Baron6dB/070201.wav,stimuli/Arrow/040101.wav,stimuli/Arrow/040002.wav,NA,0,silence,silence,W_2,1,0,0,0,1
F2024_11,stimuli/tones/silence.wav,2,42,noResp,NA,R_4,stimuli/Baron6dB/070103.wav,stimuli/Tiger/050100.wav,stimuli/Ringo/010103.wav,NA,1,silence,silence,R_4,1,0,0,1,0
F2024_11,stimuli/tones/PercTri-33dB.wav,0.75,43,space,2.1656,G_1,stimuli/Baron6dB/070300.wav,stimuli/Tiger/050202.wav,stimuli/Eagle/060203.wav,NA,1,-33dB,PercTri,G_1,1,1,0,0,0
F2024_11,stimuli/tones/FlatIEC-30dB.wav,1.25,44,noResp,NA,B_2,stimuli/Baron6dB/070001.wav,stimuli/Tiger/050002.wav,stimuli/Tiger/050200.wav,NA,0,-30dB,Flat,B_2,1,0,1,0,0
F2024_11,stimuli/tones/silence.wav,0.75,45,noResp,NA,W_3,stimuli/Baron6dB/070100.wav,stimuli/Charlie/000301.wav,stimuli/Laker/020002.wav,NA,1,silence,silence,R_1,0,0,0,1,0
F2024_11,stimuli/tones/silence.wav,2,46,noResp,NA,R_3,stimuli/Baron6dB/070302.wav,stimuli/Laker/020001.wav,stimuli/Tiger/050002.wav,NA,1,silence,silence,G_3,0,0,0,1,0
F2024_11,stimuli/tones/PercTri-18dB.wav,2,47,space,2.5566,B_4,stimuli/Baron6dB/070003.wav,stimuli/Laker/020202.wav,stimuli/Ringo/010301.wav,NA,1,-18dB,PercTri,B_4,1,1,0,0,0
F2024_11,stimuli/tones/PercTri-24dB.wav,1.25,48,space,2.5153,G_2,stimuli/Baron6dB/070301.wav,stimuli/Hopper/030003.wav,stimuli/Hopper/030000.wav,NA,1,-24dB,PercTri,G_2,1,1,0,0,0
F2024_11,stimuli/tones/FlatIEC-24dB.wav,2,49,space,2.7325,W_4,stimuli/Baron6dB/070203.wav,stimuli/Hopper/030103.wav,stimuli/Tiger/050003.wav,NA,1,-24dB,Flat,W_4,1,1,0,0,0
F2024_11,stimuli/tones/silence.wav,1.25,50,noResp,NA,W_4,stimuli/Baron6dB/070103.wav,stimuli/Charlie/000103.wav,stimuli/Tiger/050001.wav,NA,1,silence,silence,R_4,0,0,0,1,0
F2024_11,stimuli/tones/PercTri-18dB.wav,0.75,51,space,2.0491,B_4,stimuli/Baron6dB/070003.wav,stimuli/Eagle/060301.wav,stimuli/Laker/020103.wav,NA,1,-18dB,PercTri,B_4,1,1,0,0,0
F2024_11,stimuli/tones/silence.wav,2,52,noResp,NA,W_1,stimuli/Baron6dB/070200.wav,stimuli/Ringo/010200.wav,stimuli/Charlie/000003.wav,NA,1,silence,silence,W_1,1,0,0,1,0
F2024_11,stimuli/tones/PercTri-33dB.wav,0.75,53,space,2.35,W_2,stimuli/Baron6dB/070201.wav,stimuli/Laker/020003.wav,stimuli/Hopper/030100.wav,NA,1,-33dB,PercTri,W_2,1,1,0,0,0
F2024_11,stimuli/tones/FlatIEC-21dB.wav,2,54,noResp,NA,R_2,stimuli/Baron6dB/070101.wav,stimuli/Eagle/060001.wav,stimuli/Charlie/000101.wav,NA,0,-21dB,Flat,R_2,1,0,1,0,0
F2024_11,stimuli/tones/silence.wav,0.75,55,noResp,NA,W_3,stimuli/Baron6dB/070202.wav,stimuli/Eagle/060101.wav,stimuli/Hopper/030300.wav,NA,1,silence,silence,W_3,1,0,0,1,0
F2024_11,stimuli/tones/silence.wav,1.25,56,noResp,NA,B_1,stimuli/Baron6dB/070000.wav,stimuli/Ringo/010302.wav,stimuli/Laker/020301.wav,NA,1,silence,silence,B_1,1,0,0,1,0
F2024_11,stimuli/tones/FlatIEC-21dB.wav,1.25,57,space,2.9441,R_3,stimuli/Baron6dB/070302.wav,stimuli/Laker/020002.wav,stimuli/Charlie/000103.wav,NA,1,-21dB,Flat,G_3,0,1,0,0,0
F2024_11,stimuli/tones/silence.wav,2,58,noResp,NA,G_1,stimuli/Baron6dB/070300.wav,stimuli/Tiger/050003.wav,stimuli/Arrow/040301.wav,NA,1,silence,silence,G_1,1,0,0,1,0
F2024_11,stimuli/tones/silence.wav,1.25,59,noResp,NA,R_1,stimuli/Baron6dB/070100.wav,stimuli/Laker/020203.wav,stimuli/Eagle/060002.wav,NA,1,silence,silence,R_1,1,0,0,1,0
F2024_11,stimuli/tones/PercTri-30dB.wav,0.75,60,noResp,NA,B_2,stimuli/Baron6dB/070001.wav,stimuli/Eagle/060201.wav,stimuli/Charlie/000102.wav,NA,0,-30dB,PercTri,B_2,1,0,1,0,0
F2024_11,stimuli/tones/FlatIEC-18dB.wav,0.75,61,noResp,NA,B_3,stimuli/Baron6dB/070002.wav,stimuli/Tiger/050000.wav,stimuli/Tiger/050301.wav,NA,0,-18dB,Flat,B_3,1,0,1,0,0
F2024_11,stimuli/tones/silence.wav,1.25,62,noResp,NA,R_3,stimuli/Baron6dB/070102.wav,stimuli/Charlie/000303.wav,stimuli/Ringo/010201.wav,NA,1,silence,silence,R_3,1,0,0,1,0
F2024_11,stimuli/tones/silence.wav,2,63,noResp,NA,G_4,stimuli/Baron6dB/070303.wav,stimuli/Hopper/030302.wav,stimuli/Charlie/000200.wav,NA,1,silence,silence,G_4,1,0,0,1,0
F2024_11,stimuli/tones/PercTri-24dB.wav,0.75,64,space,1.3679,B_3,stimuli/Baron6dB/070302.wav,stimuli/Ringo/010102.wav,stimuli/Hopper/030102.wav,NA,1,-24dB,PercTri,G_3,0,1,0,0,0
F2024_11,stimuli/tones/PercTri-24dB.wav,2,65,space,2.5273,W_2,stimuli/Baron6dB/070101.wav,stimuli/Tiger/050001.wav,stimuli/Charlie/000302.wav,NA,1,-24dB,PercTri,R_2,0,1,0,0,0
F2024_11,stimuli/tones/silence.wav,0.75,66,noResp,NA,B_2,stimuli/Baron6dB/070001.wav,stimuli/Arrow/040303.wav,stimuli/Hopper/030201.wav,NA,1,silence,silence,B_2,1,0,0,1,0
F2024_11,stimuli/tones/silence.wav,0.75,67,noResp,NA,W_1,stimuli/Baron6dB/070200.wav,stimuli/Hopper/030202.wav,stimuli/Tiger/050201.wav,NA,1,silence,silence,W_1,1,0,0,1,0
F2024_11,stimuli/tones/silence.wav,0.75,68,space,3.3504,R_1,stimuli/Baron6dB/070100.wav,stimuli/Hopper/030100.wav,stimuli/Ringo/010002.wav,NA,0,silence,silence,R_1,1,0,0,0,1
F2024_11,stimuli/tones/PercTri-24dB.wav,2,69,space,2.4871,B_1,stimuli/Baron6dB/070000.wav,stimuli/Charlie/000002.wav,stimuli/Hopper/030303.wav,NA,1,-24dB,PercTri,B_1,1,1,0,0,0
F2024_11,stimuli/tones/FlatIEC-27dB.wav,1.25,70,space,4.407,G_1,stimuli/Baron6dB/070300.wav,stimuli/Ringo/010203.wav,stimuli/Hopper/030203.wav,NA,1,-27dB,Flat,G_1,1,1,0,0,0
F2024_11,stimuli/tones/PercTri-27dB.wav,2,71,space,2.7317,W_3,stimuli/Baron6dB/070202.wav,stimuli/Hopper/030201.wav,stimuli/Ringo/010001.wav,NA,1,-27dB,PercTri,W_3,1,1,0,0,0
F2024_11,stimuli/tones/FlatIEC-21dB.wav,1.25,72,space,1.8166,G_2,stimuli/Baron6dB/070301.wav,stimuli/Laker/020102.wav,stimuli/Ringo/010202.wav,NA,1,-21dB,Flat,G_2,1,1,0,0,0
F2024_11,stimuli/tones/PercTri-30dB.wav,0.75,73,noResp,NA,R_3,stimuli/Baron6dB/070102.wav,stimuli/Eagle/060202.wav,stimuli/Eagle/060302.wav,NA,0,-30dB,PercTri,R_3,1,0,1,0,0
F2024_11,stimuli/tones/FlatIEC-33dB.wav,2,74,space,3.1926,W_2,stimuli/Baron6dB/070201.wav,stimuli/Hopper/030101.wav,stimuli/Eagle/060103.wav,NA,1,-33dB,Flat,W_2,1,1,0,0,0
F2024_11,stimuli/tones/silence.wav,0.75,75,noResp,NA,B_4,stimuli/Baron6dB/070003.wav,stimuli/Ringo/010000.wav,stimuli/Eagle/060100.wav,NA,1,silence,silence,B_4,1,0,0,1,0
F2024_11,stimuli/tones/silence.wav,0.75,76,noResp,NA,R_4,stimuli/Baron6dB/070103.wav,stimuli/Arrow/040002.wav,stimuli/Hopper/030001.wav,NA,1,silence,silence,R_4,1,0,0,1,0
F2024_11,stimuli/tones/PercTri-27dB.wav,1.25,77,space,1.2233,G_4,stimuli/Baron6dB/070303.wav,stimuli/Eagle/060300.wav,stimuli/Ringo/010300.wav,NA,1,-27dB,PercTri,G_4,1,1,0,0,0
F2024_11,stimuli/tones/silence.wav,1.25,78,noResp,NA,W_4,stimuli/Baron6dB/070203.wav,stimuli/Eagle/060302.wav,stimuli/Arrow/040102.wav,NA,1,silence,silence,W_4,1,0,0,1,0
F2024_11,stimuli/tones/silence.wav,1.25,79,space,2.4833,B_3,stimuli/Baron6dB/070002.wav,stimuli/Ringo/010001.wav,stimuli/Tiger/050203.wav,NA,0,silence,silence,B_3,1,0,0,0,1
F2024_11,stimuli/tones/silence.wav,0.75,80,noResp,NA,W_2,stimuli/Baron6dB/070201.wav,stimuli/Arrow/040301.wav,stimuli/Ringo/010200.wav,NA,1,silence,silence,W_2,1,0,0,1,0
F2024_11,stimuli/tones/silence.wav,2,81,noResp,NA,R_3,stimuli/Baron6dB/070102.wav,stimuli/Ringo/010300.wav,stimuli/Tiger/050101.wav,NA,1,silence,silence,R_3,1,0,0,1,0
F2024_11,stimuli/tones/FlatIEC-33dB.wav,1.25,82,noResp,NA,G_2,stimuli/Baron6dB/070301.wav,stimuli/Tiger/050101.wav,stimuli/Laker/020100.wav,NA,0,-33dB,Flat,G_2,1,0,1,0,0
F2024_11,stimuli/tones/silence.wav,2,83,noResp,NA,R_4,stimuli/Baron6dB/070103.wav,stimuli/Charlie/000000.wav,stimuli/Laker/020101.wav,NA,1,silence,silence,R_4,1,0,0,1,0
F2024_11,stimuli/tones/silence.wav,1.25,84,noResp,NA,B_4,stimuli/Baron6dB/070003.wav,stimuli/Laker/020200.wav,stimuli/Tiger/050100.wav,NA,1,silence,silence,B_4,1,0,0,1,0
F2024_11,stimuli/tones/FlatIEC-24dB.wav,0.75,85,noResp,NA,W_4,stimuli/Baron6dB/070203.wav,stimuli/Laker/020101.wav,stimuli/Ringo/010203.wav,NA,0,-24dB,Flat,W_4,1,0,1,0,0
F2024_11,stimuli/tones/PercTri-21dB.wav,1.25,86,noResp,NA,B_1,stimuli/Baron6dB/070000.wav,stimuli/Arrow/040201.wav,stimuli/Tiger/050103.wav,NA,0,-21dB,PercTri,B_1,1,0,1,0,0
F2024_11,stimuli/tones/FlatIEC-33dB.wav,0.75,87,noResp,NA,R_1,stimuli/Baron6dB/070100.wav,stimuli/Eagle/060103.wav,stimuli/Arrow/040003.wav,NA,0,-33dB,Flat,R_1,1,0,1,0,0
F2024_11,stimuli/tones/silence.wav,1.25,88,noResp,NA,G_1,stimuli/Baron6dB/070300.wav,stimuli/Ringo/010201.wav,stimuli/Arrow/040000.wav,NA,1,silence,silence,G_1,1,0,0,1,0
F2024_11,stimuli/tones/silence.wav,0.75,89,noResp,NA,G_4,stimuli/Baron6dB/070303.wav,stimuli/Ringo/010301.wav,stimuli/Hopper/030003.wav,NA,1,silence,silence,G_4,1,0,0,1,0
F2024_11,stimuli/tones/silence.wav,1.25,90,noResp,NA,W_1,stimuli/Baron6dB/070200.wav,stimuli/Tiger/050103.wav,stimuli/Ringo/010100.wav,NA,1,silence,silence,W_1,1,0,0,1,0
F2024_11,stimuli/tones/PercTri-24dB.wav,0.75,91,space,2.2492,W_3,stimuli/Baron6dB/070202.wav,stimuli/Tiger/050300.wav,stimuli/Laker/020001.wav,NA,1,-24dB,PercTri,W_3,1,1,0,0,0
F2024_11,stimuli/tones/silence.wav,1.25,92,noResp,NA,B_3,stimuli/Baron6dB/070002.wav,stimuli/Ringo/010202.wav,stimuli/Laker/020102.wav,NA,1,silence,silence,B_3,1,0,0,1,0
F2024_11,stimuli/tones/PercTri-21dB.wav,1.25,93,space,2.3927,B_2,stimuli/Baron6dB/070001.wav,stimuli/Charlie/000102.wav,stimuli/Charlie/000000.wav,NA,1,-21dB,PercTri,B_2,1,1,0,0,0
F2024_11,stimuli/tones/silence.wav,2,94,noResp,NA,R_2,stimuli/Baron6dB/070101.wav,stimuli/Tiger/050302.wav,stimuli/Charlie/000203.wav,NA,1,silence,silence,R_2,1,0,0,1,0
F2024_11,stimuli/tones/FlatIEC-18dB.wav,1.25,95,space,2.3584,G_3,stimuli/Baron6dB/070302.wav,stimuli/Eagle/060100.wav,stimuli/Ringo/010101.wav,NA,1,-18dB,Flat,G_3,1,1,0,0,0
F2024_11,stimuli/tones/PercTri-27dB.wav,2,96,space,2.5112,G_3,stimuli/Baron6dB/070302.wav,stimuli/Charlie/000001.wav,stimuli/Laker/020000.wav,NA,1,-27dB,PercTri,G_3,1,1,0,0,0
F2024_11,stimuli/tones/silence.wav,2,97,noResp,NA,R_3,stimuli/Baron6dB/070102.wav,stimuli/Ringo/010303.wav,stimuli/Ringo/010302.wav,NA,1,silence,silence,R_3,1,0,0,1,0
F2024_11,stimuli/tones/PercTri-24dB.wav,1.25,98,space,2.2167,W_2,stimuli/Baron6dB/070201.wav,stimuli/Ringo/010101.wav,stimuli/Laker/020300.wav,NA,1,-24dB,PercTri,W_2,1,1,0,0,0
F2024_11,stimuli/tones/silence.wav,1.25,99,noResp,NA,B_3,stimuli/Baron6dB/070002.wav,stimuli/Arrow/040003.wav,stimuli/Charlie/000303.wav,NA,1,silence,silence,B_3,1,0,0,1,0
F2024_11,stimuli/tones/PercTri-30dB.wav,0.75,100,noResp,NA,B_1,stimuli/Baron6dB/070000.wav,stimuli/Charlie/000202.wav,stimuli/Eagle/060300.wav,NA,0,-30dB,PercTri,B_1,1,0,1,0,0
F2024_11,stimuli/tones/silence.wav,2,101,noResp,NA,G_4,stimuli/Baron6dB/070303.wav,stimuli/Arrow/040100.wav,stimuli/Arrow/040101.wav,NA,1,silence,silence,G_4,1,0,0,1,0
F2024_11,stimuli/tones/FlatIEC-18dB.wav,2,102,space,3.4699,G_2,stimuli/Baron6dB/070301.wav,stimuli/Arrow/040000.wav,stimuli/Laker/020200.wav,NA,1,-18dB,Flat,G_2,1,1,0,0,0
F2024_11,stimuli/tones/silence.wav,1.25,103,noResp,NA,G_1,stimuli/Baron6dB/070300.wav,stimuli/Hopper/030002.wav,stimuli/Tiger/050302.wav,NA,1,silence,silence,G_1,1,0,0,1,0
F2024_11,stimuli/tones/silence.wav,2,104,noResp,NA,B_2,stimuli/Baron6dB/070001.wav,stimuli/Tiger/050301.wav,stimuli/Arrow/040200.wav,NA,1,silence,silence,B_2,1,0,0,1,0
F2024_11,stimuli/tones/FlatIEC-27dB.wav,1.25,105,space,2.9099,W_4,stimuli/Baron6dB/070203.wav,stimuli/Tiger/050303.wav,stimuli/Tiger/050102.wav,NA,1,-27dB,Flat,W_4,1,1,0,0,0
F2024_11,stimuli/tones/FlatIEC-21dB.wav,1.25,106,space,2.8259,R_4,stimuli/Baron6dB/070103.wav,stimuli/Charlie/000200.wav,stimuli/Charlie/000100.wav,NA,1,-21dB,Flat,R_4,1,1,0,0,0
F2024_11,stimuli/tones/silence.wav,2,107,noResp,NA,W_1,stimuli/Baron6dB/070200.wav,stimuli/Tiger/050203.wav,stimuli/Charlie/000301.wav,NA,1,silence,silence,W_1,1,0,0,1,0
F2024_11,stimuli/tones/silence.wav,0.75,108,noResp,NA,W_3,stimuli/Baron6dB/070202.wav,stimuli/Eagle/060102.wav,stimuli/Eagle/060201.wav,NA,1,silence,silence,W_3,1,0,0,1,0
F2024_11,stimuli/tones/silence.wav,0.75,109,noResp,NA,B_4,stimuli/Baron6dB/070003.wav,stimuli/Ringo/010103.wav,stimuli/Eagle/060200.wav,NA,1,silence,silence,B_4,1,0,0,1,0
F2024_11,stimuli/tones/PercTri-33dB.wav,2,110,space,2.5424,R_1,stimuli/Baron6dB/070100.wav,stimuli/Charlie/000101.wav,stimuli/Eagle/060000.wav,NA,1,-33dB,PercTri,R_1,1,1,0,0,0
F2024_11,stimuli/tones/silence.wav,1.25,111,noResp,NA,R_2,stimuli/Baron6dB/070101.wav,stimuli/Hopper/030203.wav,stimuli/Charlie/000001.wav,NA,1,silence,silence,R_2,1,0,0,1,0
F2024_11,stimuli/tones/FlatIEC-24dB.wav,1.25,112,space,2.5772,R_4,stimuli/Baron6dB/070103.wav,stimuli/Laker/020101.wav,stimuli/Tiger/050002.wav,NA,1,-24dB,Flat,R_4,1,1,0,0,0
F2024_11,stimuli/tones/silence.wav,0.75,113,noResp,NA,W_3,stimuli/Baron6dB/070202.wav,stimuli/Eagle/060000.wav,stimuli/Arrow/040103.wav,NA,1,silence,silence,W_3,1,0,0,1,0
F2024_11,stimuli/tones/FlatIEC-18dB.wav,0.75,114,space,2.2647,W_1,stimuli/Baron6dB/070200.wav,stimuli/Hopper/030101.wav,stimuli/Ringo/010003.wav,NA,1,-18dB,Flat,W_1,1,1,0,0,0
F2024_11,stimuli/tones/silence.wav,2,115,noResp,NA,G_3,stimuli/Baron6dB/070302.wav,stimuli/Charlie/000101.wav,stimuli/Hopper/030202.wav,NA,1,silence,silence,G_3,1,0,0,1,0
F2024_11,stimuli/tones/silence.wav,1.25,116,noResp,NA,R_1,stimuli/Baron6dB/070100.wav,stimuli/Eagle/060300.wav,stimuli/Ringo/010302.wav,NA,1,silence,silence,R_1,1,0,0,1,0
F2024_11,stimuli/tones/FlatIEC-30dB.wav,2,117,noResp,NA,R_2,stimuli/Baron6dB/070101.wav,stimuli/Arrow/040300.wav,stimuli/Charlie/000000.wav,NA,0,-30dB,Flat,R_2,1,0,1,0,0
F2024_11,stimuli/tones/FlatIEC-27dB.wav,1.25,118,space,2.6352,B_4,stimuli/Baron6dB/070003.wav,stimuli/Charlie/000303.wav,stimuli/Eagle/060203.wav,NA,1,-27dB,Flat,B_4,1,1,0,0,0
F2024_11,stimuli/tones/silence.wav,0.75,119,noResp,NA,B_3,stimuli/Baron6dB/070002.wav,stimuli/Eagle/060002.wav,stimuli/Tiger/050301.wav,NA,1,silence,silence,B_3,1,0,0,1,0
F2024_11,stimuli/tones/FlatIEC-27dB.wav,2,120,space,3.0004,R_3,stimuli/Baron6dB/070102.wav,stimuli/Tiger/050302.wav,stimuli/Arrow/040102.wav,NA,1,-27dB,Flat,R_3,1,1,0,0,0
F2024_11,stimuli/tones/FlatIEC-30dB.wav,0.75,121,noResp,NA,B_2,stimuli/Baron6dB/070001.wav,stimuli/Eagle/060103.wav,stimuli/Ringo/010202.wav,NA,0,-30dB,Flat,B_2,1,0,1,0,0
F2024_11,stimuli/tones/FlatIEC-27dB.wav,0.75,122,noResp,NA,W_4,stimuli/Baron6dB/070203.wav,stimuli/Eagle/060003.wav,stimuli/Charlie/000001.wav,NA,0,-27dB,Flat,W_4,1,0,1,0,0
F2024_11,stimuli/tones/PercTri-27dB.wav,1.25,123,space,2.4177,G_1,stimuli/Baron6dB/070300.wav,stimuli/Ringo/010301.wav,stimuli/Ringo/010303.wav,NA,1,-27dB,PercTri,G_1,1,1,0,0,0
F2024_11,stimuli/tones/silence.wav,2,124,noResp,NA,W_2,stimuli/Baron6dB/070201.wav,stimuli/Arrow/040302.wav,stimuli/Hopper/030301.wav,NA,1,silence,silence,W_2,1,0,0,1,0
F2024_11,stimuli/tones/silence.wav,1.25,125,noResp,NA,B_1,stimuli/Baron6dB/070000.wav,stimuli/Eagle/060001.wav,stimuli/Arrow/040300.wav,NA,1,silence,silence,B_1,1,0,0,1,0
F2024_11,stimuli/tones/silence.wav,1.25,126,noResp,NA,G_4,stimuli/Baron6dB/070303.wav,stimuli/Eagle/060202.wav,stimuli/Arrow/040002.wav,NA,1,silence,silence,G_4,1,0,0,1,0
F2024_11,stimuli/tones/FlatIEC-30dB.wav,1.25,127,noResp,NA,G_2,stimuli/Baron6dB/070301.wav,stimuli/Eagle/060200.wav,stimuli/Tiger/050302.wav,NA,0,-30dB,Flat,G_2,1,0,1,0,0
F2024_11,stimuli/tones/silence.wav,0.75,128,noResp,NA,B_4,stimuli/Baron6dB/070003.wav,stimuli/Charlie/000102.wav,stimuli/Arrow/040003.wav,NA,1,silence,silence,B_4,1,0,0,1,0
F2024_11,stimuli/tones/silence.wav,2,129,noResp,NA,G_3,stimuli/Baron6dB/070302.wav,stimuli/Ringo/010203.wav,stimuli/Ringo/010102.wav,NA,1,silence,silence,G_3,1,0,0,1,0
F2024_11,stimuli/tones/FlatIEC-33dB.wav,0.75,130,noResp,NA,G_4,stimuli/Baron6dB/070303.wav,stimuli/Ringo/010001.wav,stimuli/Arrow/040201.wav,NA,0,-33dB,Flat,G_4,1,0,1,0,0
F2024_11,stimuli/tones/FlatIEC-21dB.wav,2,131,space,2.8661,B_1,stimuli/Baron6dB/070000.wav,stimuli/Charlie/000001.wav,stimuli/Eagle/060101.wav,NA,1,-21dB,Flat,B_1,1,1,0,0,0
F2024_11,stimuli/tones/FlatIEC-18dB.wav,2,132,space,3.2258,G_2,stimuli/Baron6dB/070300.wav,stimuli/Eagle/060301.wav,stimuli/Arrow/040101.wav,NA,1,-18dB,Flat,G_1,0,1,0,0,0
F2024_11,stimuli/tones/silence.wav,1.25,133,noResp,NA,B_3,stimuli/Baron6dB/070002.wav,stimuli/Ringo/010303.wav,stimuli/Tiger/050003.wav,NA,1,silence,silence,B_3,1,0,0,1,0
F2024_11,stimuli/tones/FlatIEC-24dB.wav,1.25,134,space,2.5208,W_4,stimuli/Baron6dB/070203.wav,stimuli/Hopper/030003.wav,stimuli/Hopper/030001.wav,NA,1,-24dB,Flat,W_4,1,1,0,0,0
F2024_11,stimuli/tones/silence.wav,2,135,noResp,NA,R_3,stimuli/Baron6dB/070102.wav,stimuli/Arrow/040301.wav,stimuli/Laker/020200.wav,NA,1,silence,silence,R_3,1,0,0,1,0
F2024_11,stimuli/tones/PercTri-21dB.wav,2,136,space,3.5439,W_2,stimuli/Baron6dB/070201.wav,stimuli/Eagle/060201.wav,stimuli/Eagle/060301.wav,NA,1,-21dB,PercTri,W_2,1,1,0,0,0
F2024_11,stimuli/tones/FlatIEC-21dB.wav,0.75,137,space,2.6363,W_1,stimuli/Baron6dB/070200.wav,stimuli/Hopper/030001.wav,stimuli/Charlie/000202.wav,NA,1,-21dB,Flat,W_1,1,1,0,0,0
F2024_11,stimuli/tones/silence.wav,1.25,138,noResp,NA,G_2,stimuli/Baron6dB/070301.wav,stimuli/Charlie/000003.wav,stimuli/Hopper/030201.wav,NA,1,silence,silence,G_2,1,0,0,1,0
F2024_11,stimuli/tones/silence.wav,1.25,139,noResp,NA,R_1,stimuli/Baron6dB/070100.wav,stimuli/Arrow/040201.wav,stimuli/Arrow/040200.wav,NA,1,silence,silence,R_1,1,0,0,1,0
F2024_11,stimuli/tones/silence.wav,1.25,140,noResp,NA,W_3,stimuli/Baron6dB/070202.wav,stimuli/Laker/020102.wav,stimuli/Arrow/040001.wav,NA,1,silence,silence,W_3,1,0,0,1,0
F2024_11,stimuli/tones/FlatIEC-33dB.wav,1.25,141,noResp,NA,R_3,stimuli/Baron6dB/070103.wav,stimuli/Arrow/040003.wav,stimuli/Eagle/060102.wav,NA,0,-33dB,Flat,R_4,0,0,1,0,0
F2024_11,stimuli/tones/silence.wav,2,142,noResp,NA,R_2,stimuli/Baron6dB/070101.wav,stimuli/Ringo/010003.wav,stimuli/Tiger/050203.wav,NA,1,silence,silence,R_2,1,0,0,1,0
F2024_11,stimuli/tones/PercTri-33dB.wav,0.75,143,noResp,NA,B_2,stimuli/Baron6dB/070001.wav,stimuli/Hopper/030102.wav,stimuli/Laker/020002.wav,NA,0,-33dB,PercTri,B_2,1,0,1,0,0
F2024_11,stimuli/tones/silence.wav,1.25,144,noResp,NA,G_1,stimuli/Baron6dB/070000.wav,stimuli/Laker/020300.wav,stimuli/Charlie/000101.wav,NA,1,silence,silence,B_1,0,0,0,1,0
F2024_11,stimuli/tones/silence.wav,0.75,145,noResp,NA,R_1,stimuli/Baron6dB/070100.wav,stimuli/Charlie/000302.wav,stimuli/Eagle/060100.wav,NA,1,silence,silence,R_1,1,0,0,1,0
F2024_11,stimuli/tones/FlatIEC-27dB.wav,0.75,146,space,2.2604,R_2,stimuli/Baron6dB/070101.wav,stimuli/Ringo/010300.wav,stimuli/Eagle/060003.wav,NA,1,-27dB,Flat,R_2,1,1,0,0,0
F2024_11,stimuli/tones/silence.wav,0.75,147,noResp,NA,W_1,stimuli/Baron6dB/070200.wav,stimuli/Charlie/000100.wav,stimuli/Laker/020001.wav,NA,1,silence,silence,W_1,1,0,0,1,0
F2024_11,stimuli/tones/FlatIEC-24dB.wav,2,148,space,3.6703,G_2,stimuli/Baron6dB/070301.wav,stimuli/Hopper/030203.wav,stimuli/Ringo/010301.wav,NA,1,-24dB,Flat,G_2,1,1,0,0,0
