participant,tone,tone_onset,loop.thisN,key_resp_5.keys,key_resp_5.rt,mouseClick_5.clicked_name,thisA,thisB,thisC,typePrompt,cor,snr,env,CRMcorrect,CRMhit,hit,miss,cr,fa
1,stimuli/tones/silence.wav,2,0,noResp,NA,R_4,stimuli/Baron6dB/070103.wav,stimuli/Tiger/050101.wav,stimuli/Arrow/040303.wav,NA,1,silence,silence,R_4,1,0,0,1,0
1,stimuli/tones/PercTri-24dB.wav,1.25,1,noResp,NA,G_2,stimuli/Baron6dB/070301.wav,stimuli/Laker/020300.wav,stimuli/Eagle/060301.wav,NA,0,-24dB,PercTri,G_2,1,0,1,0,0
1,stimuli/tones/PercTri-30dB.wav,0.75,2,noResp,NA,W_3,stimuli/Baron6dB/070202.wav,stimuli/Hopper/030201.wav,stimuli/Laker/020003.wav,NA,0,-30dB,PercTri,W_3,1,0,1,0,0
1,stimuli/tones/PercTri-24dB.wav,0.75,3,noResp,NA,R_3,stimuli/Baron6dB/070102.wav,stimuli/Ringo/010300.wav,stimuli/Eagle/060101.wav,NA,0,-24dB,PercTri,R_3,1,0,1,0,0
1,stimuli/tones/FlatIEC-33dB.wav,2,4,noResp,NA,R_1,stimuli/Baron6dB/070100.wav,stimuli/Ringo/010003.wav,stimuli/Eagle/060003.wav,NA,0,-33dB,Flat,R_1,1,0,1,0,0
1,stimuli/tones/silence.wav,1.25,5,noResp,NA,W_4,stimuli/Baron6dB/070203.wav,stimuli/Arrow/040300.wav,stimuli/Hopper/030100.wav,NA,1,silence,silence,W_4,1,0,0,1,0
1,stimuli/tones/silence.wav,2,6,noResp,NA,B_2,stimuli/Baron6dB/070001.wav,stimuli/Charlie/000102.wav,stimuli/Laker/020003.wav,NA,1,silence,silence,B_2,1,0,0,1,0
1,stimuli/tones/silence.wav,0.75,7,noResp,NA,G_1,stimuli/Baron6dB/070300.wav,stimuli/Hopper/030103.wav,stimuli/Ringo/010300.wav,NA,1,silence,silence,G_1,1,0,0,1,0
1,stimuli/tones/silence.wav,1.25,8,noResp,NA,R_3,stimuli/Baron6dB/070002.wav,stimuli/Ringo/010101.wav,stimuli/Charlie/000102.wav,NA,1,silence,silence,B_3,0,0,0,1,0
1,stimuli/tones/silence.wav,2,9,noResp,NA,W_2,stimuli/Baron6dB/070201.wav,stimuli/Charlie/000103.wav,stimuli/Ringo/010301.wav,NA,1,silence,silence,W_2,1,0,0,1,0
1,stimuli/tones/silence.wav,2,10,noResp,NA,W_3,stimuli/Baron6dB/070302.wav,stimuli/Tiger/050100.wav,stimuli/Laker/020202.wav,NA,1,silence,silence,G_3,0,0,0,1,0
1,stimuli/tones/silence.wav,2,11,noResp,NA,R_4,stimuli/Baron6dB/070303.wav,stimuli/Charlie/000101.wav,stimuli/Arrow/040103.wav,NA,1,silence,silence,G_4,0,0,0,1,0
1,stimuli/tones/FlatIEC-27dB.wav,2,12,noResp,NA,B_1,stimuli/Baron6dB/070000.wav,stimuli/Eagle/060001.wav,stimuli/Laker/020302.wav,NA,0,-27dB,Flat,B_1,1,0,1,0,0
1,stimuli/tones/FlatIEC-18dB.wav,0.75,13,noResp,NA,W_4,stimuli/Baron6dB/070101.wav,stimuli/Laker/020002.wav,stimuli/Hopper/030203.wav,NA,0,-18dB,Flat,R_2,0,0,1,0,0
1,stimuli/tones/PercTri-33dB.wav,1.25,14,noResp,NA,W_1,stimuli/Baron6dB/070200.wav,stimuli/Charlie/000303.wav,stimuli/Hopper/030003.wav,NA,0,-33dB,PercTri,W_1,1,0,1,0,0
1,stimuli/tones/FlatIEC-21dB.wav,1.25,15,noResp,NA,B_4,stimuli/Baron6dB/070003.wav,stimuli/Ringo/010203.wav,stimuli/Hopper/030103.wav,NA,0,-21dB,Flat,B_4,1,0,1,0,0
1,stimuli/tones/silence.wav,1.25,16,noResp,NA,B_1,stimuli/Baron6dB/070000.wav,stimuli/Arrow/040003.wav,stimuli/Laker/020200.wav,NA,1,silence,silence,B_1,1,0,0,1,0
1,stimuli/tones/FlatIEC-27dB.wav,0.75,17,noResp,NA,B_2,stimuli/Baron6dB/070001.wav,stimuli/Laker/020203.wav,stimuli/Ringo/010201.wav,NA,0,-27dB,Flat,B_2,1,0,1,0,0
1,stimuli/tones/silence.wav,1.25,18,noResp,NA,W_3,stimuli/Baron6dB/070202.wav,stimuli/Charlie/000003.wav,stimuli/Laker/020001.wav,NA,1,silence,silence,W_3,1,0,0,1,0
1,stimuli/tones/silence.wav,1.25,19,noResp,NA,G_2,stimuli/Baron6dB/070301.wav,stimuli/Laker/020303.wav,stimuli/Hopper/030303.wav,NA,1,silence,silence,G_2,1,0,0,1,0
1,stimuli/tones/PercTri-27dB.wav,1.25,20,noResp,NA,B_4,stimuli/Baron6dB/070003.wav,stimuli/Eagle/060202.wav,stimuli/Eagle/060200.wav,NA,0,-27dB,PercTri,B_4,1,0,1,0,0
1,stimuli/tones/silence.wav,0.75,21,noResp,NA,W_4,stimuli/Baron6dB/070203.wav,stimuli/Arrow/040301.wav,stimuli/Arrow/040300.wav,NA,1,silence,silence,W_4,1,0,0,1,0
1,stimuli/tones/FlatIEC-33dB.wav,0.75,22,noResp,NA,G_3,stimuli/Baron6dB/070302.wav,stimuli/Arrow/040002.wav,stimuli/Ringo/010303.wav,NA,0,-33dB,Flat,G_3,1,0,1,0,0
1,stimuli/tones/FlatIEC-30dB.wav,1.25,23,noResp,NA,R_1,stimuli/Baron6dB/070100.wav,stimuli/Eagle/060301.wav,stimuli/Tiger/050201.wav,NA,0,-30dB,Flat,R_1,1,0,1,0,0
1,stimuli/tones/FlatIEC-21dB.wav,2,24,noResp,NA,R_3,stimuli/Baron6dB/070102.wav,stimuli/Tiger/050102.wav,stimuli/Laker/020300.wav,NA,0,-21dB,Flat,R_3,1,0,1,0,0
1,stimuli/tones/PercTri-33dB.wav,0.75,25,space,4.0161,R_4,stimuli/Baron6dB/070002.wav,stimuli/Eagle/060002.wav,stimuli/Laker/020203.wav,NA,1,-33dB,PercTri,B_3,0,1,0,0,0
1,stimuli/tones/silence.wav,0.75,26,noResp,NA,R_4,stimuli/Baron6dB/070303.wav,stimuli/Hopper/030101.wav,stimuli/Arrow/040202.wav,NA,1,silence,silence,G_4,0,0,0,1,0
1,stimuli/tones/silence.wav,0.75,27,noResp,NA,W_2,stimuli/Baron6dB/070200.wav,stimuli/Arrow/040200.wav,stimuli/Hopper/030301.wav,NA,1,silence,silence,W_1,0,0,0,1,0
1,stimuli/tones/silence.wav,1.25,28,noResp,NA,W_2,stimuli/Baron6dB/070201.wav,stimuli/Hopper/030203.wav,stimuli/Ringo/010002.wav,NA,1,silence,silence,W_2,1,0,0,1,0
1,stimuli/tones/FlatIEC-33dB.wav,0.75,29,noResp,NA,R_4,stimuli/Baron6dB/070103.wav,stimuli/Laker/020000.wav,stimuli/Arrow/040201.wav,NA,0,-33dB,Flat,R_4,1,0,1,0,0
1,stimuli/tones/FlatIEC-30dB.wav,2,30,noResp,NA,G_1,stimuli/Baron6dB/070300.wav,stimuli/Arrow/040201.wav,stimuli/Ringo/010001.wav,NA,0,-30dB,Flat,G_1,1,0,1,0,0
1,stimuli/tones/silence.wav,1.25,31,noResp,NA,R_2,stimuli/Baron6dB/070101.wav,stimuli/Charlie/000000.wav,stimuli/Hopper/030201.wav,NA,1,silence,silence,R_2,1,0,0,1,0
1,stimuli/tones/silence.wav,2,32,noResp,NA,R_1,stimuli/Baron6dB/070100.wav,stimuli/Charlie/000200.wav,stimuli/Tiger/050200.wav,NA,1,silence,silence,R_1,1,0,0,1,0
1,stimuli/tones/silence.wav,0.75,33,noResp,NA,W_4,stimuli/Baron6dB/070203.wav,stimuli/Laker/020201.wav,stimuli/Charlie/000001.wav,NA,1,silence,silence,W_4,1,0,0,1,0
1,stimuli/tones/FlatIEC-24dB.wav,2,34,noResp,NA,G_1,stimuli/Baron6dB/070300.wav,stimuli/Hopper/030303.wav,stimuli/Hopper/030102.wav,NA,0,-24dB,Flat,G_1,1,0,1,0,0
1,stimuli/tones/silence.wav,1.25,35,noResp,NA,G_2,stimuli/Baron6dB/070301.wav,stimuli/Charlie/000201.wav,stimuli/Arrow/040102.wav,NA,1,silence,silence,G_2,1,0,0,1,0
1,stimuli/tones/silence.wav,0.75,36,noResp,NA,W_2,stimuli/Baron6dB/070201.wav,stimuli/Charlie/000202.wav,stimuli/Eagle/060102.wav,NA,1,silence,silence,W_2,1,0,0,1,0
1,stimuli/tones/FlatIEC-24dB.wav,0.75,37,noResp,NA,R_4,stimuli/Baron6dB/070103.wav,stimuli/Eagle/060300.wav,stimuli/Arrow/040302.wav,NA,0,-24dB,Flat,R_4,1,0,1,0,0
1,stimuli/tones/silence.wav,2,38,noResp,NA,R_4,stimuli/Baron6dB/070002.wav,stimuli/Hopper/030102.wav,stimuli/Tiger/050101.wav,NA,1,silence,silence,B_3,0,0,0,1,0
1,stimuli/tones/silence.wav,0.75,39,noResp,NA,R_2,stimuli/Baron6dB/070101.wav,stimuli/Ringo/010302.wav,stimuli/Ringo/010100.wav,NA,1,silence,silence,R_2,1,0,0,1,0
1,stimuli/tones/PercTri-21dB.wav,1.25,40,noResp,NA,G_4,stimuli/Baron6dB/070003.wav,stimuli/Arrow/040100.wav,stimuli/Tiger/050001.wav,NA,0,-21dB,PercTri,B_4,0,0,1,0,0
1,stimuli/tones/silence.wav,0.75,41,noResp,NA,W_3,stimuli/Baron6dB/070202.wav,stimuli/Ringo/010303.wav,stimuli/Charlie/000002.wav,NA,1,silence,silence,W_3,1,0,0,1,0
1,stimuli/tones/FlatIEC-27dB.wav,0.75,42,noResp,NA,G_3,stimuli/Baron6dB/070302.wav,stimuli/Hopper/030001.wav,stimuli/Laker/020303.wav,NA,0,-27dB,Flat,G_3,1,0,1,0,0
1,stimuli/tones/PercTri-18dB.wav,1.25,43,noResp,NA,G_3,stimuli/Baron6dB/070102.wav,stimuli/Hopper/030200.wav,stimuli/Hopper/030001.wav,NA,0,-18dB,PercTri,R_3,0,0,1,0,0
1,stimuli/tones/FlatIEC-18dB.wav,2,44,noResp,NA,W_1,stimuli/Baron6dB/070200.wav,stimuli/Arrow/040303.wav,stimuli/Eagle/060000.wav,NA,0,-18dB,Flat,W_1,1,0,1,0,0
1,stimuli/tones/PercTri-24dB.wav,0.75,45,noResp,NA,B_2,stimuli/Baron6dB/070001.wav,stimuli/Hopper/030302.wav,stimuli/Tiger/050102.wav,NA,0,-24dB,PercTri,B_2,1,0,1,0,0
1,stimuli/tones/silence.wav,2,46,noResp,NA,R_4,stimuli/Baron6dB/070303.wav,stimuli/Eagle/060101.wav,stimuli/Eagle/060203.wav,NA,1,silence,silence,G_4,0,0,0,1,0
1,stimuli/tones/FlatIEC-18dB.wav,1.25,47,noResp,NA,B_1,stimuli/Baron6dB/070000.wav,stimuli/Ringo/010100.wav,stimuli/Arrow/040100.wav,NA,0,-18dB,Flat,B_1,1,0,1,0,0
1,stimuli/tones/silence.wav,0.75,48,noResp,NA,G_1,stimuli/Baron6dB/070300.wav,stimuli/Tiger/050002.wav,stimuli/Ringo/010302.wav,NA,1,silence,silence,G_1,1,0,0,1,0
1,stimuli/tones/PercTri-18dB.wav,0.75,49,noResp,NA,B_4,stimuli/Baron6dB/070003.wav,stimuli/Laker/020200.wav,stimuli/Eagle/060201.wav,NA,0,-18dB,PercTri,B_4,1,0,1,0,0
1,stimuli/tones/PercTri-21dB.wav,0.75,50,noResp,NA,R_4,stimuli/Baron6dB/070100.wav,stimuli/Laker/020003.wav,stimuli/Laker/020000.wav,NA,0,-21dB,PercTri,R_1,0,0,1,0,0
1,stimuli/tones/silence.wav,0.75,51,noResp,NA,B_3,stimuli/Baron6dB/070302.wav,stimuli/Arrow/040001.wav,stimuli/Arrow/040000.wav,NA,1,silence,silence,G_3,0,0,0,1,0
1,stimuli/tones/FlatIEC-21dB.wav,0.75,52,noResp,NA,W_3,stimuli/Baron6dB/070102.wav,stimuli/Laker/020202.wav,stimuli/Laker/020103.wav,NA,0,-21dB,Flat,R_3,0,0,1,0,0
1,stimuli/tones/FlatIEC-21dB.wav,2,53,noResp,NA,W_3,stimuli/Baron6dB/070200.wav,stimuli/Ringo/010102.wav,stimuli/Charlie/000103.wav,NA,0,-21dB,Flat,W_1,0,0,1,0,0
1,stimuli/tones/PercTri-21dB.wav,2,54,noResp,NA,B_3,stimuli/Baron6dB/070002.wav,stimuli/Laker/020003.wav,stimuli/Arrow/040001.wav,NA,0,-21dB,PercTri,B_3,1,0,1,0,0
1,stimuli/tones/FlatIEC-30dB.wav,1.25,55,noResp,NA,W_4,stimuli/Baron6dB/070203.wav,stimuli/Ringo/010201.wav,stimuli/Charlie/000201.wav,NA,0,-30dB,Flat,W_4,1,0,1,0,0
1,stimuli/tones/silence.wav,2,56,noResp,NA,G_4,stimuli/Baron6dB/070303.wav,stimuli/Arrow/040101.wav,stimuli/Charlie/000000.wav,NA,1,silence,silence,G_4,1,0,0,1,0
1,stimuli/tones/PercTri-33dB.wav,2,57,noResp,NA,R_4,stimuli/Baron6dB/070103.wav,stimuli/Laker/020001.wav,stimuli/Hopper/030202.wav,NA,0,-33dB,PercTri,R_4,1,0,1,0,0
1,stimuli/tones/PercTri-18dB.wav,2,58,noResp,NA,B_2,stimuli/Baron6dB/070001.wav,stimuli/Eagle/060000.wav,stimuli/Laker/020201.wav,NA,0,-18dB,PercTri,B_2,1,0,1,0,0
1,stimuli/tones/silence.wav,0.75,59,noResp,NA,G_1,stimuli/Baron6dB/070000.wav,stimuli/Hopper/030002.wav,stimuli/Ringo/010101.wav,NA,1,silence,silence,B_1,0,0,0,1,0
1,stimuli/tones/PercTri-33dB.wav,2,60,noResp,NA,G_2,stimuli/Baron6dB/070301.wav,stimuli/Laker/020102.wav,stimuli/Ringo/010200.wav,NA,0,-33dB,PercTri,G_2,1,0,1,0,0
1,stimuli/tones/silence.wav,1.25,61,noResp,NA,G_2,stimuli/Baron6dB/070101.wav,stimuli/Tiger/050003.wav,stimuli/Eagle/060202.wav,NA,1,silence,silence,R_2,0,0,0,1,0
1,stimuli/tones/FlatIEC-24dB.wav,2,62,noResp,NA,W_3,stimuli/Baron6dB/070202.wav,stimuli/Tiger/050202.wav,stimuli/Arrow/040200.wav,NA,0,-24dB,Flat,W_3,1,0,1,0,0
1,stimuli/tones/FlatIEC-18dB.wav,2,63,noResp,NA,W_2,stimuli/Baron6dB/070201.wav,stimuli/Laker/020002.wav,stimuli/Laker/020100.wav,NA,0,-18dB,Flat,W_2,1,0,1,0,0
1,stimuli/tones/PercTri-27dB.wav,0.75,64,noResp,NA,W_1,stimuli/Baron6dB/070200.wav,stimuli/Arrow/040302.wav,stimuli/Ringo/010000.wav,NA,0,-27dB,PercTri,W_1,1,0,1,0,0
1,stimuli/tones/FlatIEC-18dB.wav,2,65,noResp,NA,R_2,stimuli/Baron6dB/070101.wav,stimuli/Ringo/010002.wav,stimuli/Charlie/000203.wav,NA,0,-18dB,Flat,R_2,1,0,1,0,0
1,stimuli/tones/PercTri-18dB.wav,0.75,66,noResp,NA,G_4,stimuli/Baron6dB/070303.wav,stimuli/Laker/020100.wav,stimuli/Hopper/030101.wav,NA,0,-18dB,PercTri,G_4,1,0,1,0,0
1,stimuli/tones/silence.wav,0.75,67,noResp,NA,W_4,stimuli/Baron6dB/070103.wav,stimuli/Ringo/010103.wav,stimuli/Laker/020000.wav,NA,1,silence,silence,R_4,0,0,0,1,0
1,stimuli/tones/silence.wav,1.25,68,noResp,NA,B_3,stimuli/Baron6dB/070002.wav,stimuli/Arrow/040000.wav,stimuli/Charlie/000202.wav,NA,1,silence,silence,B_3,1,0,0,1,0
1,stimuli/tones/silence.wav,0.75,69,noResp,NA,W_3,stimuli/Baron6dB/070202.wav,stimuli/Eagle/060102.wav,stimuli/Charlie/000100.wav,NA,1,silence,silence,W_3,1,0,0,1,0
1,stimuli/tones/silence.wav,0.75,70,noResp,NA,G_1,stimuli/Baron6dB/070300.wav,stimuli/Arrow/040103.wav,stimuli/Charlie/000303.wav,NA,1,silence,silence,G_1,1,0,0,1,0
1,stimuli/tones/FlatIEC-27dB.wav,1.25,71,noResp,NA,R_3,stimuli/Baron6dB/070102.wav,stimuli/Arrow/040102.wav,stimuli/Charlie/000101.wav,NA,0,-27dB,Flat,R_3,1,0,1,0,0
1,stimuli/tones/silence.wav,2,72,noResp,NA,G_3,stimuli/Baron6dB/070302.wav,stimuli/Laker/020302.wav,stimuli/Hopper/030200.wav,NA,1,silence,silence,G_3,1,0,0,1,0
1,stimuli/tones/PercTri-30dB.wav,1.25,73,noResp,NA,W_4,stimuli/Baron6dB/070203.wav,stimuli/Laker/020000.wav,stimuli/Hopper/030302.wav,NA,0,-30dB,PercTri,W_4,1,0,1,0,0
1,stimuli/tones/silence.wav,1.25,74,noResp,NA,R_4,stimuli/Baron6dB/070100.wav,stimuli/Charlie/000300.wav,stimuli/Laker/020002.wav,NA,1,silence,silence,R_1,0,0,0,1,0
1,stimuli/tones/silence.wav,2,75,noResp,NA,B_2,stimuli/Baron6dB/070001.wav,stimuli/Charlie/000302.wav,stimuli/Tiger/050203.wav,NA,1,silence,silence,B_2,1,0,0,1,0
1,stimuli/tones/silence.wav,1.25,76,noResp,NA,B_1,stimuli/Baron6dB/070000.wav,stimuli/Ringo/010200.wav,stimuli/Tiger/050002.wav,NA,1,silence,silence,B_1,1,0,0,1,0
1,stimuli/tones/silence.wav,2,77,noResp,NA,B_4,stimuli/Baron6dB/070003.wav,stimuli/Hopper/030301.wav,stimuli/Hopper/030300.wav,NA,1,silence,silence,B_4,1,0,0,1,0
1,stimuli/tones/FlatIEC-21dB.wav,0.75,78,noResp,NA,W_2,stimuli/Baron6dB/070201.wav,stimuli/Laker/020103.wav,stimuli/Charlie/000301.wav,NA,0,-21dB,Flat,W_2,1,0,1,0,0
1,stimuli/tones/PercTri-27dB.wav,0.75,79,noResp,NA,G_2,stimuli/Baron6dB/070301.wav,stimuli/Hopper/030202.wav,stimuli/Charlie/000003.wav,NA,0,-27dB,PercTri,G_2,1,0,1,0,0
1,stimuli/tones/silence.wav,0.75,80,noResp,NA,R_4,stimuli/Baron6dB/070103.wav,stimuli/Eagle/060003.wav,stimuli/Eagle/060300.wav,NA,1,silence,silence,R_4,1,0,0,1,0
1,stimuli/tones/silence.wav,2,81,noResp,NA,R_3,stimuli/Baron6dB/070102.wav,stimuli/Charlie/000203.wav,stimuli/Laker/020301.wav,NA,1,silence,silence,R_3,1,0,0,1,0
1,stimuli/tones/silence.wav,1.25,82,noResp,NA,G_4,stimuli/Baron6dB/070303.wav,stimuli/Charlie/000002.wav,stimuli/Tiger/050100.wav,NA,1,silence,silence,G_4,1,0,0,1,0
1,stimuli/tones/PercTri-18dB.wav,0.75,83,noResp,NA,R_1,stimuli/Baron6dB/070100.wav,stimuli/Tiger/050103.wav,stimuli/Ringo/010202.wav,NA,0,-18dB,PercTri,R_1,1,0,1,0,0
1,stimuli/tones/FlatIEC-27dB.wav,1.25,84,noResp,NA,B_2,stimuli/Baron6dB/070001.wav,stimuli/Tiger/050000.wav,stimuli/Laker/020101.wav,NA,0,-27dB,Flat,B_2,1,0,1,0,0
1,stimuli/tones/FlatIEC-18dB.wav,1.25,85,noResp,NA,W_2,stimuli/Baron6dB/070201.wav,stimuli/Hopper/030003.wav,stimuli/Laker/020001.wav,NA,0,-18dB,Flat,W_2,1,0,1,0,0
1,stimuli/tones/silence.wav,1.25,86,noResp,NA,B_3,stimuli/Baron6dB/070002.wav,stimuli/Eagle/060103.wav,stimuli/Ringo/010102.wav,NA,1,silence,silence,B_3,1,0,0,1,0
1,stimuli/tones/PercTri-18dB.wav,1.25,87,noResp,NA,W_1,stimuli/Baron6dB/070200.wav,stimuli/Eagle/060302.wav,stimuli/Ringo/010203.wav,NA,0,-18dB,PercTri,W_1,1,0,1,0,0
1,stimuli/tones/silence.wav,1.25,88,noResp,NA,W_3,stimuli/Baron6dB/070302.wav,stimuli/Laker/020301.wav,stimuli/Arrow/040002.wav,NA,1,silence,silence,G_3,0,0,0,1,0
1,stimuli/tones/silence.wav,0.75,89,noResp,NA,W_3,stimuli/Baron6dB/070202.wav,stimuli/Charlie/000301.wav,stimuli/Eagle/060302.wav,NA,1,silence,silence,W_3,1,0,0,1,0
1,stimuli/tones/silence.wav,2,90,noResp,NA,G_1,stimuli/Baron6dB/070300.wav,stimuli/Charlie/000001.wav,stimuli/Tiger/050103.wav,NA,1,silence,silence,G_1,1,0,0,1,0
1,stimuli/tones/silence.wav,0.75,91,noResp,NA,G_2,stimuli/Baron6dB/070301.wav,stimuli/Tiger/050001.wav,stimuli/Eagle/060001.wav,NA,1,silence,silence,G_2,1,0,0,1,0
1,stimuli/tones/silence.wav,1.25,92,noResp,NA,G_4,stimuli/Baron6dB/070003.wav,stimuli/Laker/020001.wav,stimuli/Charlie/000302.wav,NA,1,silence,silence,B_4,0,0,0,1,0
1,stimuli/tones/FlatIEC-24dB.wav,2,93,noResp,NA,W_4,stimuli/Baron6dB/070203.wav,stimuli/Eagle/060200.wav,stimuli/Arrow/040101.wav,NA,0,-24dB,Flat,W_4,1,0,1,0,0
1,stimuli/tones/silence.wav,1.25,94,noResp,NA,R_2,stimuli/Baron6dB/070101.wav,stimuli/Eagle/060203.wav,stimuli/Eagle/060002.wav,NA,1,silence,silence,R_2,1,0,0,1,0
1,stimuli/tones/silence.wav,0.75,95,noResp,NA,W_1,stimuli/Baron6dB/070000.wav,stimuli/Eagle/060303.wav,stimuli/Laker/020102.wav,NA,1,silence,silence,B_1,0,0,0,1,0
1,stimuli/tones/silence.wav,0.75,96,noResp,NA,W_4,stimuli/Baron6dB/070000.wav,stimuli/Tiger/050200.wav,stimuli/Arrow/040203.wav,NA,1,silence,silence,B_1,0,0,0,1,0
1,stimuli/tones/FlatIEC-21dB.wav,0.75,97,noResp,NA,B_2,stimuli/Baron6dB/070001.wav,stimuli/Ringo/010202.wav,stimuli/Charlie/000200.wav,NA,0,-21dB,Flat,B_2,1,0,1,0,0
1,stimuli/tones/FlatIEC-24dB.wav,0.75,98,noResp,NA,G_3,stimuli/Baron6dB/070302.wav,stimuli/Laker/020101.wav,stimuli/Hopper/030002.wav,NA,0,-24dB,Flat,G_3,1,0,1,0,0
1,stimuli/tones/FlatIEC-33dB.wav,1.25,99,noResp,NA,W_2,stimuli/Baron6dB/070201.wav,stimuli/Hopper/030100.wav,stimuli/Tiger/050000.wav,NA,0,-33dB,Flat,W_2,1,0,1,0,0
1,stimuli/tones/PercTri-24dB.wav,2,100,noResp,NA,W_3,stimuli/Baron6dB/070202.wav,stimuli/Charlie/000100.wav,stimuli/Eagle/060103.wav,NA,0,-24dB,PercTri,W_3,1,0,1,0,0
1,stimuli/tones/silence.wav,0.75,101,noResp,NA,W_1,stimuli/Baron6dB/070200.wav,stimuli/Hopper/030000.wav,stimuli/Charlie/000300.wav,NA,1,silence,silence,W_1,1,0,0,1,0
1,stimuli/tones/PercTri-24dB.wav,1.25,102,noResp,NA,W_2,stimuli/Baron6dB/070301.wav,stimuli/Tiger/050203.wav,stimuli/Tiger/050003.wav,NA,0,-24dB,PercTri,G_2,0,0,1,0,0
1,stimuli/tones/FlatIEC-21dB.wav,2,103,noResp,NA,R_4,stimuli/Baron6dB/070103.wav,stimuli/Eagle/060201.wav,stimuli/Hopper/030000.wav,NA,0,-21dB,Flat,R_4,1,0,1,0,0
1,stimuli/tones/PercTri-27dB.wav,2,104,noResp,NA,W_4,stimuli/Baron6dB/070003.wav,stimuli/Hopper/030300.wav,stimuli/Tiger/050202.wav,NA,0,-27dB,PercTri,B_4,0,0,1,0,0
1,stimuli/tones/PercTri-30dB.wav,2,105,noResp,NA,R_1,stimuli/Baron6dB/070100.wav,stimuli/Tiger/050201.wav,stimuli/Eagle/060303.wav,NA,0,-30dB,PercTri,R_1,1,0,1,0,0
1,stimuli/tones/FlatIEC-21dB.wav,1.25,106,noResp,NA,W_4,stimuli/Baron6dB/070203.wav,stimuli/Eagle/060100.wav,stimuli/Arrow/040301.wav,NA,0,-21dB,Flat,W_4,1,0,1,0,0
1,stimuli/tones/silence.wav,0.75,107,noResp,NA,W_2,stimuli/Baron6dB/070101.wav,stimuli/Ringo/010000.wav,stimuli/Arrow/040003.wav,NA,1,silence,silence,R_2,0,0,0,1,0
1,stimuli/tones/silence.wav,2,108,noResp,NA,B_3,stimuli/Baron6dB/070002.wav,stimuli/Ringo/010001.wav,stimuli/Ringo/010003.wav,NA,1,silence,silence,B_3,1,0,0,1,0
1,stimuli/tones/silence.wav,1.25,109,noResp,NA,G_4,stimuli/Baron6dB/070303.wav,stimuli/Arrow/040202.wav,stimuli/Ringo/010103.wav,NA,1,silence,silence,G_4,1,0,0,1,0
1,stimuli/tones/silence.wav,2,110,noResp,NA,R_3,stimuli/Baron6dB/070102.wav,stimuli/Ringo/010301.wav,stimuli/Eagle/060100.wav,NA,1,silence,silence,R_3,1,0,0,1,0
1,stimuli/tones/silence.wav,1.25,111,noResp,NA,G_1,stimuli/Baron6dB/070300.wav,stimuli/Arrow/040203.wav,stimuli/Laker/020002.wav,NA,1,silence,silence,G_1,1,0,0,1,0
1,stimuli/tones/PercTri-24dB.wav,2,112,noResp,NA,W_2,stimuli/Baron6dB/070101.wav,stimuli/Arrow/040202.wav,stimuli/Eagle/060003.wav,NA,0,-24dB,PercTri,R_2,0,0,1,0,0
1,stimuli/tones/silence.wav,1.25,113,noResp,NA,W_1,stimuli/Baron6dB/070100.wav,stimuli/Ringo/010101.wav,stimuli/Hopper/030301.wav,NA,1,silence,silence,R_1,0,0,0,1,0
1,stimuli/tones/silence.wav,0.75,114,noResp,NA,G_1,stimuli/Baron6dB/070300.wav,stimuli/Tiger/050100.wav,stimuli/Laker/020201.wav,NA,1,silence,silence,G_1,1,0,0,1,0
1,stimuli/tones/FlatIEC-33dB.wav,1.25,115,noResp,NA,R_4,stimuli/Baron6dB/070103.wav,stimuli/Charlie/000101.wav,stimuli/Arrow/040103.wav,NA,0,-33dB,Flat,R_4,1,0,1,0,0
1,stimuli/tones/PercTri-21dB.wav,0.75,116,noResp,NA,G_2,stimuli/Baron6dB/070301.wav,stimuli/Ringo/010200.wav,stimuli/Arrow/040202.wav,NA,0,-21dB,PercTri,G_2,1,0,1,0,0
1,stimuli/tones/PercTri-18dB.wav,2,117,noResp,NA,B_4,stimuli/Baron6dB/070003.wav,stimuli/Charlie/000201.wav,stimuli/Hopper/030202.wav,NA,0,-18dB,PercTri,B_4,1,0,1,0,0
1,stimuli/tones/FlatIEC-24dB.wav,1.25,118,noResp,NA,W_4,stimuli/Baron6dB/070201.wav,stimuli/Laker/020103.wav,stimuli/Ringo/010200.wav,NA,0,-24dB,Flat,W_2,0,0,1,0,0
1,stimuli/tones/FlatIEC-21dB.wav,1.25,119,noResp,NA,B_2,stimuli/Baron6dB/070000.wav,stimuli/Charlie/000001.wav,stimuli/Laker/020001.wav,NA,0,-21dB,Flat,B_1,0,0,1,0,0
1,stimuli/tones/silence.wav,1.25,120,noResp,NA,B_3,stimuli/Baron6dB/070002.wav,stimuli/Laker/020000.wav,stimuli/Charlie/000202.wav,NA,1,silence,silence,B_3,1,0,0,1,0
1,stimuli/tones/FlatIEC-18dB.wav,0.75,121,noResp,NA,W_4,stimuli/Baron6dB/070203.wav,stimuli/Laker/020303.wav,stimuli/Laker/020203.wav,NA,0,-18dB,Flat,W_4,1,0,1,0,0
1,stimuli/tones/silence.wav,2,122,noResp,NA,W_4,stimuli/Baron6dB/070302.wav,stimuli/Hopper/030301.wav,stimuli/Laker/020103.wav,NA,1,silence,silence,G_3,0,0,0,1,0
1,stimuli/tones/PercTri-30dB.wav,1.25,123,noResp,NA,W_1,stimuli/Baron6dB/070200.wav,stimuli/Hopper/030302.wav,stimuli/Eagle/060202.wav,NA,0,-30dB,PercTri,W_1,1,0,1,0,0
1,stimuli/tones/FlatIEC-24dB.wav,1.25,124,noResp,NA,W_1,stimuli/Baron6dB/070202.wav,stimuli/Charlie/000002.wav,stimuli/Charlie/000101.wav,NA,0,-24dB,Flat,W_3,0,0,1,0,0
1,stimuli/tones/silence.wav,1.25,125,noResp,NA,G_4,stimuli/Baron6dB/070303.wav,stimuli/Eagle/060100.wav,stimuli/Eagle/060302.wav,NA,1,silence,silence,G_4,1,0,0,1,0
1,stimuli/tones/silence.wav,2,126,noResp,NA,R_3,stimuli/Baron6dB/070102.wav,stimuli/Eagle/060102.wav,stimuli/Eagle/060100.wav,NA,1,silence,silence,R_3,1,0,0,1,0
1,stimuli/tones/silence.wav,2,127,noResp,NA,B_2,stimuli/Baron6dB/070001.wav,stimuli/Arrow/040103.wav,stimuli/Eagle/060000.wav,NA,1,silence,silence,B_2,1,0,0,1,0
1,stimuli/tones/FlatIEC-30dB.wav,2,128,noResp,NA,G_1,stimuli/Baron6dB/070300.wav,stimuli/Hopper/030100.wav,stimuli/Ringo/010101.wav,NA,0,-30dB,Flat,G_1,1,0,1,0,0
1,stimuli/tones/FlatIEC-27dB.wav,0.75,129,noResp,NA,W_2,stimuli/Baron6dB/070201.wav,stimuli/Eagle/060300.wav,stimuli/Tiger/050003.wav,NA,0,-27dB,Flat,W_2,1,0,1,0,0
1,stimuli/tones/silence.wav,0.75,130,noResp,NA,W_3,stimuli/Baron6dB/070202.wav,stimuli/Ringo/010302.wav,stimuli/Arrow/040303.wav,NA,1,silence,silence,W_3,1,0,0,1,0
1,stimuli/tones/PercTri-27dB.wav,1.25,131,noResp,NA,B_4,stimuli/Baron6dB/070003.wav,stimuli/Eagle/060001.wav,stimuli/Arrow/040203.wav,NA,0,-27dB,PercTri,B_4,1,0,1,0,0
1,stimuli/tones/PercTri-27dB.wav,0.75,132,noResp,NA,B_2,stimuli/Baron6dB/070001.wav,stimuli/Charlie/000301.wav,stimuli/Charlie/000000.wav,NA,0,-27dB,PercTri,B_2,1,0,1,0,0
1,stimuli/tones/FlatIEC-27dB.wav,2,133,noResp,NA,W_4,stimuli/Baron6dB/070303.wav,stimuli/Ringo/010303.wav,stimuli/Eagle/060201.wav,NA,0,-27dB,Flat,G_4,0,0,1,0,0
1,stimuli/tones/silence.wav,0.75,134,noResp,NA,W_1,stimuli/Baron6dB/070200.wav,stimuli/Hopper/030200.wav,stimuli/Tiger/050200.wav,NA,1,silence,silence,W_1,1,0,0,1,0
1,stimuli/tones/FlatIEC-33dB.wav,1.25,135,noResp,NA,W_1,stimuli/Baron6dB/070103.wav,stimuli/Tiger/050202.wav,stimuli/Laker/020100.wav,NA,0,-33dB,Flat,R_4,0,0,1,0,0
1,stimuli/tones/silence.wav,1.25,136,noResp,NA,G_2,stimuli/Baron6dB/070301.wav,stimuli/Eagle/060000.wav,stimuli/Charlie/000102.wav,NA,1,silence,silence,G_2,1,0,0,1,0
1,stimuli/tones/silence.wav,1.25,137,noResp,NA,G_3,stimuli/Baron6dB/070302.wav,stimuli/Eagle/060003.wav,stimuli/Ringo/010300.wav,NA,1,silence,silence,G_3,1,0,0,1,0
1,stimuli/tones/silence.wav,2,138,noResp,NA,R_2,stimuli/Baron6dB/070101.wav,stimuli/Arrow/040001.wav,stimuli/Hopper/030103.wav,NA,1,silence,silence,R_2,1,0,0,1,0
1,stimuli/tones/silence.wav,1.25,139,noResp,NA,R_3,stimuli/Baron6dB/070102.wav,stimuli/Laker/020003.wav,stimuli/Hopper/030203.wav,NA,1,silence,silence,R_3,1,0,0,1,0
1,stimuli/tones/silence.wav,1.25,140,noResp,NA,B_3,stimuli/Baron6dB/070002.wav,stimuli/Arrow/040003.wav,stimuli/Laker/020003.wav,NA,1,silence,silence,B_3,1,0,0,1,0
1,stimuli/tones/silence.wav,2,141,noResp,NA,R_1,stimuli/Baron6dB/070100.wav,stimuli/Eagle/060301.wav,stimuli/Ringo/010002.wav,NA,1,silence,silence,R_1,1,0,0,1,0
1,stimuli/tones/PercTri-24dB.wav,0.75,142,noResp,NA,W_4,stimuli/Baron6dB/070203.wav,stimuli/Hopper/030101.wav,stimuli/Hopper/030303.wav,NA,0,-24dB,PercTri,W_4,1,0,1,0,0
1,stimuli/tones/silence.wav,1.25,143,noResp,NA,B_1,stimuli/Baron6dB/070000.wav,stimuli/Charlie/000102.wav,stimuli/Arrow/040000.wav,NA,1,silence,silence,B_1,1,0,0,1,0
1,stimuli/tones/PercTri-30dB.wav,2,144,noResp,NA,B_4,stimuli/Baron6dB/070003.wav,stimuli/Laker/020200.wav,stimuli/Eagle/060001.wav,NA,0,-30dB,PercTri,B_4,1,0,1,0,0
1,stimuli/tones/silence.wav,2,145,noResp,NA,W_4,stimuli/Baron6dB/070203.wav,stimuli/Laker/020202.wav,stimuli/Charlie/000300.wav,NA,1,silence,silence,W_4,1,0,0,1,0
1,stimuli/tones/silence.wav,1.25,146,noResp,NA,B_1,stimuli/Baron6dB/070000.wav,stimuli/Laker/020000.wav,stimuli/Laker/020101.wav,NA,1,silence,silence,B_1,1,0,0,1,0
1,stimuli/tones/FlatIEC-18dB.wav,1.25,147,noResp,NA,R_4,stimuli/Baron6dB/070103.wav,stimuli/Laker/020001.wav,stimuli/Arrow/040003.wav,NA,0,-18dB,Flat,R_4,1,0,1,0,0
1,stimuli/tones/FlatIEC-24dB.wav,1.25,148,noResp,NA,W_1,stimuli/Baron6dB/070200.wav,stimuli/Arrow/040203.wav,stimuli/Arrow/040201.wav,NA,0,-24dB,Flat,W_1,1,0,1,0,0
1,stimuli/tones/silence.wav,1.25,149,noResp,NA,G_2,stimuli/Baron6dB/070302.wav,stimuli/Laker/020003.wav,stimuli/Eagle/060101.wav,NA,1,silence,silence,G_3,0,0,0,1,0
1,stimuli/tones/silence.wav,2,150,noResp,NA,W_3,stimuli/Baron6dB/070102.wav,stimuli/Arrow/040102.wav,stimuli/Arrow/040300.wav,NA,1,silence,silence,R_3,0,0,0,1,0
1,stimuli/tones/PercTri-33dB.wav,0.75,151,noResp,NA,W_4,stimuli/Baron6dB/070303.wav,stimuli/Ringo/010102.wav,stimuli/Hopper/030000.wav,NA,0,-33dB,PercTri,G_4,0,0,1,0,0
1,stimuli/tones/silence.wav,2,152,noResp,NA,B_3,stimuli/Baron6dB/070002.wav,stimuli/Tiger/050203.wav,stimuli/Ringo/010102.wav,NA,1,silence,silence,B_3,1,0,0,1,0
1,stimuli/tones/PercTri-33dB.wav,2,153,noResp,NA,G_2,stimuli/Baron6dB/070301.wav,stimuli/Tiger/050200.wav,stimuli/Charlie/000203.wav,NA,0,-33dB,PercTri,G_2,1,0,1,0,0
1,stimuli/tones/silence.wav,2,154,noResp,NA,W_3,stimuli/Baron6dB/070202.wav,stimuli/Hopper/030102.wav,stimuli/Arrow/040101.wav,NA,1,silence,silence,W_3,1,0,0,1,0
1,stimuli/tones/silence.wav,0.75,155,noResp,NA,R_1,stimuli/Baron6dB/070100.wav,stimuli/Arrow/040301.wav,stimuli/Eagle/060002.wav,NA,1,silence,silence,R_1,1,0,0,1,0
1,stimuli/tones/silence.wav,0.75,156,noResp,NA,R_4,stimuli/Baron6dB/070300.wav,stimuli/Eagle/060203.wav,stimuli/Ringo/010003.wav,NA,1,silence,silence,G_1,0,0,0,1,0
1,stimuli/tones/silence.wav,0.75,157,noResp,NA,B_2,stimuli/Baron6dB/070001.wav,stimuli/Tiger/050103.wav,stimuli/Tiger/050203.wav,NA,1,silence,silence,B_2,1,0,0,1,0
1,stimuli/tones/FlatIEC-24dB.wav,0.75,158,noResp,NA,R_2,stimuli/Baron6dB/070101.wav,stimuli/Tiger/050201.wav,stimuli/Laker/020200.wav,NA,0,-24dB,Flat,R_2,1,0,1,0,0
1,stimuli/tones/PercTri-33dB.wav,1.25,159,noResp,NA,W_2,stimuli/Baron6dB/070201.wav,stimuli/Ringo/010201.wav,stimuli/Ringo/010201.wav,NA,0,-33dB,PercTri,W_2,1,0,1,0,0
1,stimuli/tones/FlatIEC-33dB.wav,2,160,noResp,NA,W_4,stimuli/Baron6dB/070203.wav,stimuli/Charlie/000103.wav,stimuli/Tiger/050103.wav,NA,0,-33dB,Flat,W_4,1,0,1,0,0
1,stimuli/tones/PercTri-30dB.wav,2,161,noResp,NA,R_4,stimuli/Baron6dB/070103.wav,stimuli/Charlie/000100.wav,stimuli/Laker/020003.wav,NA,0,-30dB,PercTri,R_4,1,0,1,0,0
1,stimuli/tones/PercTri-21dB.wav,2,162,noResp,NA,W_1,stimuli/Baron6dB/070100.wav,stimuli/Ringo/010103.wav,stimuli/Charlie/000201.wav,NA,0,-21dB,PercTri,R_1,0,0,1,0,0
1,stimuli/tones/PercTri-24dB.wav,1.25,163,noResp,NA,G_2,stimuli/Baron6dB/070301.wav,stimuli/Laker/020201.wav,stimuli/Laker/020301.wav,NA,0,-24dB,PercTri,G_2,1,0,1,0,0
1,stimuli/tones/silence.wav,2,164,noResp,NA,B_1,stimuli/Baron6dB/070000.wav,stimuli/Tiger/050102.wav,stimuli/Charlie/000100.wav,NA,1,silence,silence,B_1,1,0,0,1,0
1,stimuli/tones/PercTri-27dB.wav,2,165,noResp,NA,B_3,stimuli/Baron6dB/070002.wav,stimuli/Hopper/030001.wav,stimuli/Hopper/030101.wav,NA,0,-27dB,PercTri,B_3,1,0,1,0,0
1,stimuli/tones/silence.wav,0.75,166,noResp,NA,W_3,stimuli/Baron6dB/070202.wav,stimuli/Eagle/060103.wav,stimuli/Tiger/050000.wav,NA,1,silence,silence,W_3,1,0,0,1,0
1,stimuli/tones/silence.wav,2,167,noResp,NA,W_3,stimuli/Baron6dB/070303.wav,stimuli/Tiger/050003.wav,stimuli/Tiger/050102.wav,NA,1,silence,silence,G_4,0,0,0,1,0
1,stimuli/tones/FlatIEC-30dB.wav,1.25,168,noResp,NA,B_2,stimuli/Baron6dB/070001.wav,stimuli/Ringo/010202.wav,stimuli/Ringo/010103.wav,NA,0,-30dB,Flat,B_2,1,0,1,0,0
1,stimuli/tones/silence.wav,0.75,169,noResp,NA,W_1,stimuli/Baron6dB/070300.wav,stimuli/Ringo/010300.wav,stimuli/Charlie/000301.wav,NA,1,silence,silence,G_1,0,0,0,1,0
1,stimuli/tones/FlatIEC-30dB.wav,0.75,170,noResp,NA,R_2,stimuli/Baron6dB/070101.wav,stimuli/Ringo/010003.wav,stimuli/Hopper/030100.wav,NA,0,-30dB,Flat,R_2,1,0,1,0,0
1,stimuli/tones/silence.wav,1.25,171,noResp,NA,B_4,stimuli/Baron6dB/070003.wav,stimuli/Arrow/040302.wav,stimuli/Arrow/040102.wav,NA,1,silence,silence,B_4,1,0,0,1,0
1,stimuli/tones/silence.wav,2,172,noResp,NA,W_2,stimuli/Baron6dB/070201.wav,stimuli/Charlie/000000.wav,stimuli/Tiger/050201.wav,NA,1,silence,silence,W_2,1,0,0,1,0
1,stimuli/tones/PercTri-18dB.wav,1.25,173,noResp,NA,G_3,stimuli/Baron6dB/070302.wav,stimuli/Charlie/000202.wav,stimuli/Ringo/010000.wav,NA,0,-18dB,PercTri,G_3,1,0,1,0,0
1,stimuli/tones/silence.wav,2,174,noResp,NA,W_1,stimuli/Baron6dB/070200.wav,stimuli/Tiger/050002.wav,stimuli/Ringo/010202.wav,NA,1,silence,silence,W_1,1,0,0,1,0
1,stimuli/tones/FlatIEC-30dB.wav,0.75,175,noResp,NA,W_3,stimuli/Baron6dB/070102.wav,stimuli/Hopper/030303.wav,stimuli/Tiger/050100.wav,NA,0,-30dB,Flat,R_3,0,0,1,0,0
1,stimuli/tones/PercTri-33dB.wav,1.25,176,noResp,NA,B_2,stimuli/Baron6dB/070001.wav,stimuli/Ringo/010100.wav,stimuli/Ringo/010301.wav,NA,0,-33dB,PercTri,B_2,1,0,1,0,0
1,stimuli/tones/silence.wav,0.75,177,noResp,NA,G_3,stimuli/Baron6dB/070302.wav,stimuli/Arrow/040100.wav,stimuli/Eagle/060303.wav,NA,1,silence,silence,G_3,1,0,0,1,0
1,stimuli/tones/FlatIEC-27dB.wav,2,178,noResp,NA,W_2,stimuli/Baron6dB/070201.wav,stimuli/Eagle/060101.wav,stimuli/Laker/020000.wav,NA,0,-27dB,Flat,W_2,1,0,1,0,0
1,stimuli/tones/FlatIEC-18dB.wav,0.75,179,noResp,NA,R_4,stimuli/Baron6dB/070103.wav,stimuli/Tiger/050000.wav,stimuli/Eagle/060103.wav,NA,0,-18dB,Flat,R_4,1,0,1,0,0
1,stimuli/tones/PercTri-30dB.wav,1.25,180,noResp,NA,R_4,stimuli/Baron6dB/070303.wav,stimuli/Hopper/030103.wav,stimuli/Charlie/000200.wav,NA,0,-30dB,PercTri,G_4,0,0,1,0,0
1,stimuli/tones/FlatIEC-27dB.wav,1.25,181,noResp,NA,W_1,stimuli/Baron6dB/070200.wav,stimuli/Ringo/010000.wav,stimuli/Hopper/030201.wav,NA,0,-27dB,Flat,W_1,1,0,1,0,0
1,stimuli/tones/silence.wav,0.75,182,noResp,NA,G_2,stimuli/Baron6dB/070301.wav,stimuli/Arrow/040101.wav,stimuli/Laker/020303.wav,NA,1,silence,silence,G_2,1,0,0,1,0
1,stimuli/tones/PercTri-21dB.wav,2,183,noResp,NA,G_1,stimuli/Baron6dB/070300.wav,stimuli/Hopper/030000.wav,stimuli/Laker/020000.wav,NA,0,-21dB,PercTri,G_1,1,0,1,0,0
1,stimuli/tones/silence.wav,1.25,184,noResp,NA,B_1,stimuli/Baron6dB/070000.wav,stimuli/Hopper/030203.wav,stimuli/Laker/020001.wav,NA,1,silence,silence,B_1,1,0,0,1,0
1,stimuli/tones/silence.wav,2,185,noResp,NA,R_2,stimuli/Baron6dB/070101.wav,stimuli/Laker/020001.wav,stimuli/Tiger/050101.wav,NA,1,silence,silence,R_2,1,0,0,1,0
1,stimuli/tones/silence.wav,0.75,186,noResp,NA,W_4,stimuli/Baron6dB/070203.wav,stimuli/Ringo/010002.wav,stimuli/Arrow/040100.wav,NA,1,silence,silence,W_4,1,0,0,1,0
1,stimuli/tones/PercTri-30dB.wav,0.75,187,noResp,NA,B_3,stimuli/Baron6dB/070002.wav,stimuli/Tiger/050101.wav,stimuli/Charlie/000103.wav,NA,0,-30dB,PercTri,B_3,1,0,1,0,0
1,stimuli/tones/silence.wav,0.75,188,noResp,NA,W_3,stimuli/Baron6dB/070102.wav,stimuli/Charlie/000300.wav,stimuli/Hopper/030200.wav,NA,1,silence,silence,R_3,0,0,0,1,0
1,stimuli/tones/silence.wav,1.25,189,noResp,NA,B_3,stimuli/Baron6dB/070100.wav,stimuli/Charlie/000303.wav,stimuli/Laker/020002.wav,NA,1,silence,silence,R_1,0,0,0,1,0
1,stimuli/tones/silence.wav,2,190,noResp,NA,W_3,stimuli/Baron6dB/070202.wav,stimuli/Eagle/060302.wav,stimuli/Arrow/040001.wav,NA,1,silence,silence,W_3,1,0,0,1,0
1,stimuli/tones/silence.wav,1.25,191,noResp,NA,W_4,stimuli/Baron6dB/070003.wav,stimuli/Eagle/060202.wav,stimuli/Laker/020202.wav,NA,1,silence,silence,B_4,0,0,0,1,0
1,stimuli/tones/PercTri-21dB.wav,1.25,192,noResp,NA,W_3,stimuli/Baron6dB/070202.wav,stimuli/Laker/020101.wav,stimuli/Arrow/040302.wav,NA,0,-21dB,PercTri,W_3,1,0,1,0,0
1,stimuli/tones/PercTri-24dB.wav,2,193,noResp,NA,B_2,stimuli/Baron6dB/070001.wav,stimuli/Eagle/060303.wav,stimuli/Hopper/030300.wav,NA,0,-24dB,PercTri,B_2,1,0,1,0,0
1,stimuli/tones/PercTri-33dB.wav,0.75,194,noResp,NA,B_3,stimuli/Baron6dB/070002.wav,stimuli/Charlie/000200.wav,stimuli/Eagle/060301.wav,NA,0,-33dB,PercTri,B_3,1,0,1,0,0
1,stimuli/tones/PercTri-21dB.wav,1.25,195,noResp,NA,B_2,stimuli/Baron6dB/070301.wav,stimuli/Charlie/000203.wav,stimuli/Arrow/040301.wav,NA,0,-21dB,PercTri,G_2,0,0,1,0,0
1,stimuli/tones/silence.wav,2,196,noResp,NA,R_3,stimuli/Baron6dB/070102.wav,stimuli/Arrow/040000.wav,stimuli/Arrow/040200.wav,NA,1,silence,silence,R_3,1,0,0,1,0
1,stimuli/tones/PercTri-18dB.wav,2,197,noResp,NA,G_4,stimuli/Baron6dB/070303.wav,stimuli/Laker/020100.wav,stimuli/Eagle/060203.wav,NA,0,-18dB,PercTri,G_4,1,0,1,0,0
1,stimuli/tones/silence.wav,2,198,noResp,NA,B_1,stimuli/Baron6dB/070000.wav,stimuli/Eagle/060002.wav,stimuli/Laker/020002.wav,NA,1,silence,silence,B_1,1,0,0,1,0
1,stimuli/tones/PercTri-27dB.wav,2,199,noResp,NA,B_3,stimuli/Baron6dB/070200.wav,stimuli/Charlie/000302.wav,stimuli/Charlie/000002.wav,NA,0,-27dB,PercTri,W_1,0,0,1,0,0
1,stimuli/tones/silence.wav,0.75,200,noResp,NA,B_4,stimuli/Baron6dB/070003.wav,stimuli/Laker/020302.wav,stimuli/Laker/020302.wav,NA,1,silence,silence,B_4,1,0,0,1,0
1,stimuli/tones/silence.wav,1.25,201,noResp,NA,W_4,stimuli/Baron6dB/070203.wav,stimuli/Arrow/040300.wav,stimuli/Hopper/030003.wav,NA,1,silence,silence,W_4,1,0,0,1,0
1,stimuli/tones/FlatIEC-30dB.wav,0.75,202,noResp,NA,G_1,stimuli/Baron6dB/070300.wav,stimuli/Laker/020102.wav,stimuli/Tiger/050202.wav,NA,0,-30dB,Flat,G_1,1,0,1,0,0
1,stimuli/tones/silence.wav,0.75,203,noResp,NA,B_3,stimuli/Baron6dB/070100.wav,stimuli/Hopper/030201.wav,stimuli/Tiger/050002.wav,NA,1,silence,silence,R_1,0,0,0,1,0
1,stimuli/tones/silence.wav,2,204,noResp,NA,G_3,stimuli/Baron6dB/070302.wav,stimuli/Ringo/010301.wav,stimuli/Ringo/010001.wav,NA,1,silence,silence,G_3,1,0,0,1,0
1,stimuli/tones/PercTri-27dB.wav,1.25,205,noResp,NA,G_1,stimuli/Baron6dB/070101.wav,stimuli/Ringo/010001.wav,stimuli/Eagle/060300.wav,NA,0,-27dB,PercTri,R_2,0,0,1,0,0
1,stimuli/tones/FlatIEC-33dB.wav,2,206,noResp,NA,W_2,stimuli/Baron6dB/070201.wav,stimuli/Hopper/030002.wav,stimuli/Arrow/040002.wav,NA,0,-33dB,Flat,W_2,1,0,1,0,0
1,stimuli/tones/FlatIEC-33dB.wav,0.75,207,noResp,NA,W_4,stimuli/Baron6dB/070103.wav,stimuli/Laker/020002.wav,stimuli/Laker/020102.wav,NA,0,-33dB,Flat,R_4,0,0,1,0,0
1,stimuli/tones/silence.wav,1.25,208,noResp,NA,G_4,stimuli/Baron6dB/070303.wav,stimuli/Arrow/040201.wav,stimuli/Hopper/030001.wav,NA,1,silence,silence,G_4,1,0,0,1,0
1,stimuli/tones/silence.wav,2,209,noResp,NA,R_1,stimuli/Baron6dB/070100.wav,stimuli/Charlie/000003.wav,stimuli/Ringo/010203.wav,NA,1,silence,silence,R_1,1,0,0,1,0
1,stimuli/tones/FlatIEC-30dB.wav,2,210,noResp,NA,W_4,stimuli/Baron6dB/070203.wav,stimuli/Arrow/040303.wav,stimuli/Charlie/000001.wav,NA,0,-30dB,Flat,W_4,1,0,1,0,0
1,stimuli/tones/silence.wav,2,211,noResp,NA,W_1,stimuli/Baron6dB/070200.wav,stimuli/Hopper/030003.wav,stimuli/Eagle/060200.wav,NA,1,silence,silence,W_1,1,0,0,1,0
1,stimuli/tones/PercTri-30dB.wav,0.75,212,noResp,NA,G_4,stimuli/Baron6dB/070103.wav,stimuli/Hopper/030300.wav,stimuli/Eagle/060102.wav,NA,0,-30dB,PercTri,R_4,0,0,1,0,0
1,stimuli/tones/PercTri-21dB.wav,0.75,213,noResp,NA,W_2,stimuli/Baron6dB/070201.wav,stimuli/Eagle/060201.wav,stimuli/Tiger/050001.wav,NA,0,-21dB,PercTri,W_2,1,0,1,0,0
1,stimuli/tones/silence.wav,1.25,214,noResp,NA,W_4,stimuli/Baron6dB/070003.wav,stimuli/Laker/020301.wav,stimuli/Hopper/030302.wav,NA,1,silence,silence,B_4,0,0,0,1,0
1,stimuli/tones/silence.wav,0.75,215,noResp,NA,W_2,stimuli/Baron6dB/070101.wav,stimuli/Laker/020300.wav,stimuli/Hopper/030102.wav,NA,1,silence,silence,R_2,0,0,0,1,0
10,stimuli/tones/silence.wav,2,0,space,4.2102,B_3,stimuli/Baron6dB/070003.wav,stimuli/Arrow/040000.wav,stimuli/Charlie/000002.wav,NA,0,silence,silence,B_4,0,0,0,0,1
10,stimuli/tones/silence.wav,2,1,noResp,NA,W_2,stimuli/Baron6dB/070201.wav,stimuli/Eagle/060001.wav,stimuli/Laker/020003.wav,NA,1,silence,silence,W_2,1,0,0,1,0
10,stimuli/tones/silence.wav,0.75,2,noResp,NA,W_4,stimuli/Baron6dB/070203.wav,stimuli/Eagle/060200.wav,stimuli/Charlie/000300.wav,NA,1,silence,silence,W_4,1,0,0,1,0
10,stimuli/tones/silence.wav,1.25,3,noResp,NA,G_2,stimuli/Baron6dB/070301.wav,stimuli/Hopper/030300.wav,stimuli/Laker/020001.wav,NA,1,silence,silence,G_2,1,0,0,1,0
10,stimuli/tones/silence.wav,0.75,4,space,0.2364,R_2,stimuli/Baron6dB/070101.wav,stimuli/Arrow/040101.wav,stimuli/Laker/020002.wav,NA,0,silence,silence,R_2,1,0,0,0,1
10,stimuli/tones/silence.wav,0.75,5,noResp,NA,G_1,stimuli/Baron6dB/070300.wav,stimuli/Eagle/060000.wav,stimuli/Hopper/030201.wav,NA,1,silence,silence,G_1,1,0,0,1,0
10,stimuli/tones/silence.wav,1.25,6,noResp,NA,W_3,stimuli/Baron6dB/070202.wav,stimuli/Ringo/010201.wav,stimuli/Hopper/030101.wav,NA,1,silence,silence,W_3,1,0,0,1,0
10,stimuli/tones/FlatIEC-18dB.wav,1.25,7,space,1.9505,B_1,stimuli/Baron6dB/070000.wav,stimuli/Laker/020000.wav,stimuli/Charlie/000103.wav,NA,1,-18dB,Flat,B_1,1,1,0,0,0
10,stimuli/tones/PercTri-21dB.wav,2,8,space,2.5934,B_3,stimuli/Baron6dB/070002.wav,stimuli/Eagle/060101.wav,stimuli/Arrow/040201.wav,NA,1,-21dB,PercTri,B_3,1,1,0,0,0
10,stimuli/tones/silence.wav,1.25,9,noResp,NA,B_2,stimuli/Baron6dB/070001.wav,stimuli/Hopper/030302.wav,stimuli/Hopper/030203.wav,NA,1,silence,silence,B_2,1,0,0,1,0
10,stimuli/tones/silence.wav,1.25,10,noResp,NA,G_3,stimuli/Baron6dB/070302.wav,stimuli/Hopper/030201.wav,stimuli/Eagle/060300.wav,NA,1,silence,silence,G_3,1,0,0,1,0
10,stimuli/tones/FlatIEC-30dB.wav,0.75,11,noResp,NA,G_4,stimuli/Baron6dB/070303.wav,stimuli/Arrow/040003.wav,stimuli/Hopper/030303.wav,NA,0,-30dB,Flat,G_4,1,0,1,0,0
10,stimuli/tones/silence.wav,1.25,12,noResp,NA,W_4,stimuli/Baron6dB/070103.wav,stimuli/Laker/020003.wav,stimuli/Ringo/010201.wav,NA,1,silence,silence,R_4,0,0,0,1,0
10,stimuli/tones/silence.wav,2,13,noResp,NA,W_1,stimuli/Baron6dB/070200.wav,stimuli/Ringo/010301.wav,stimuli/Hopper/030200.wav,NA,1,silence,silence,W_1,1,0,0,1,0
10,stimuli/tones/silence.wav,0.75,14,noResp,NA,W_3,stimuli/Baron6dB/070102.wav,stimuli/Laker/020000.wav,stimuli/Laker/020102.wav,NA,1,silence,silence,R_3,0,0,0,1,0
10,stimuli/tones/FlatIEC-27dB.wav,1.25,15,space,2.6779,R_1,stimuli/Baron6dB/070100.wav,stimuli/Eagle/060202.wav,stimuli/Laker/020201.wav,NA,1,-27dB,Flat,R_1,1,1,0,0,0
10,stimuli/tones/silence.wav,0.75,16,noResp,NA,G_4,stimuli/Baron6dB/070303.wav,stimuli/Ringo/010000.wav,stimuli/Arrow/040202.wav,NA,1,silence,silence,G_4,1,0,0,1,0
10,stimuli/tones/PercTri-24dB.wav,2,17,space,2.6442,B_4,stimuli/Baron6dB/070003.wav,stimuli/Tiger/050103.wav,stimuli/Tiger/050201.wav,NA,1,-24dB,PercTri,B_4,1,1,0,0,0
10,stimuli/tones/FlatIEC-33dB.wav,0.75,18,noResp,NA,R_2,stimuli/Baron6dB/070101.wav,stimuli/Laker/020201.wav,stimuli/Hopper/030301.wav,NA,0,-33dB,Flat,R_2,1,0,1,0,0
10,stimuli/tones/FlatIEC-18dB.wav,0.75,19,noResp,NA,W_2,stimuli/Baron6dB/070201.wav,stimuli/Laker/020200.wav,stimuli/Laker/020300.wav,NA,0,-18dB,Flat,W_2,1,0,1,0,0
10,stimuli/tones/silence.wav,0.75,20,noResp,NA,B_1,stimuli/Baron6dB/070000.wav,stimuli/Tiger/050001.wav,stimuli/Laker/020001.wav,NA,1,silence,silence,B_1,1,0,0,1,0
10,stimuli/tones/PercTri-30dB.wav,1.25,21,space,1.8182,G_2,stimuli/Baron6dB/070301.wav,stimuli/Arrow/040100.wav,stimuli/Ringo/010100.wav,NA,1,-30dB,PercTri,G_2,1,1,0,0,0
10,stimuli/tones/silence.wav,2,22,noResp,NA,R_3,stimuli/Baron6dB/070102.wav,stimuli/Laker/020102.wav,stimuli/Eagle/060100.wav,NA,1,silence,silence,R_3,1,0,0,1,0
10,stimuli/tones/FlatIEC-21dB.wav,1.25,23,space,1.8758,G_1,stimuli/Baron6dB/070302.wav,stimuli/Charlie/000201.wav,stimuli/Eagle/060000.wav,NA,1,-21dB,Flat,G_3,0,1,0,0,0
10,stimuli/tones/silence.wav,0.75,24,noResp,NA,W_3,stimuli/Baron6dB/070202.wav,stimuli/Tiger/050102.wav,stimuli/Eagle/060303.wav,NA,1,silence,silence,W_3,1,0,0,1,0
10,stimuli/tones/PercTri-21dB.wav,1.25,25,space,1.7435,B_3,stimuli/Baron6dB/070002.wav,stimuli/Arrow/040303.wav,stimuli/Hopper/030001.wav,NA,1,-21dB,PercTri,B_3,1,1,0,0,0
10,stimuli/tones/PercTri-33dB.wav,0.75,26,space,1.7115,W_1,stimuli/Baron6dB/070200.wav,stimuli/Charlie/000202.wav,stimuli/Laker/020303.wav,NA,1,-33dB,PercTri,W_1,1,1,0,0,0
10,stimuli/tones/silence.wav,2,27,noResp,NA,G_1,stimuli/Baron6dB/070300.wav,stimuli/Arrow/040002.wav,stimuli/Ringo/010200.wav,NA,1,silence,silence,G_1,1,0,0,1,0
10,stimuli/tones/FlatIEC-18dB.wav,1.25,28,space,1.8603,R_4,stimuli/Baron6dB/070103.wav,stimuli/Hopper/030102.wav,stimuli/Laker/020200.wav,NA,1,-18dB,Flat,R_4,1,1,0,0,0
10,stimuli/tones/silence.wav,1.25,29,space,3.1284,B_2,stimuli/Baron6dB/070001.wav,stimuli/Hopper/030000.wav,stimuli/Arrow/040300.wav,NA,0,silence,silence,B_2,1,0,0,0,1
10,stimuli/tones/silence.wav,1.25,30,noResp,NA,W_4,stimuli/Baron6dB/070203.wav,stimuli/Tiger/050101.wav,stimuli/Charlie/000201.wav,NA,1,silence,silence,W_4,1,0,0,1,0
10,stimuli/tones/silence.wav,2,31,space,1.643,G_1,stimuli/Baron6dB/070100.wav,stimuli/Laker/020002.wav,stimuli/Arrow/040001.wav,NA,0,silence,silence,R_1,0,0,0,0,1
10,stimuli/tones/silence.wav,1.25,32,noResp,NA,W_1,stimuli/Baron6dB/070200.wav,stimuli/Charlie/000301.wav,stimuli/Tiger/050103.wav,NA,1,silence,silence,W_1,1,0,0,1,0
10,stimuli/tones/silence.wav,1.25,33,noResp,NA,B_2,stimuli/Baron6dB/070001.wav,stimuli/Laker/020203.wav,stimuli/Ringo/010203.wav,NA,1,silence,silence,B_2,1,0,0,1,0
10,stimuli/tones/silence.wav,0.75,34,noResp,NA,R_4,stimuli/Baron6dB/070103.wav,stimuli/Laker/020302.wav,stimuli/Hopper/030003.wav,NA,1,silence,silence,R_4,1,0,0,1,0
10,stimuli/tones/silence.wav,1.25,35,noResp,NA,R_4,stimuli/Baron6dB/070303.wav,stimuli/Ringo/010002.wav,stimuli/Hopper/030202.wav,NA,1,silence,silence,G_4,0,0,0,1,0
10,stimuli/tones/FlatIEC-27dB.wav,2,36,space,3.2615,W_3,stimuli/Baron6dB/070202.wav,stimuli/Tiger/050203.wav,stimuli/Hopper/030002.wav,NA,1,-27dB,Flat,W_3,1,1,0,0,0
10,stimuli/tones/silence.wav,0.75,37,noResp,NA,R_2,stimuli/Baron6dB/070101.wav,stimuli/Eagle/060100.wav,stimuli/Hopper/030100.wav,NA,1,silence,silence,R_2,1,0,0,1,0
10,stimuli/tones/FlatIEC-33dB.wav,1.25,38,noResp,NA,B_4,stimuli/Baron6dB/070003.wav,stimuli/Hopper/030203.wav,stimuli/Eagle/060001.wav,NA,0,-33dB,Flat,B_4,1,0,1,0,0
10,stimuli/tones/FlatIEC-21dB.wav,0.75,39,space,3.4655,R_1,stimuli/Baron6dB/070100.wav,stimuli/Charlie/000103.wav,stimuli/Ringo/010002.wav,NA,1,-21dB,Flat,R_1,1,1,0,0,0
10,stimuli/tones/PercTri-30dB.wav,1.25,40,space,1.6324,W_3,stimuli/Baron6dB/070102.wav,stimuli/Laker/020100.wav,stimuli/Eagle/060302.wav,NA,1,-30dB,PercTri,R_3,0,1,0,0,0
10,stimuli/tones/PercTri-24dB.wav,0.75,41,space,1.3927,W_4,stimuli/Baron6dB/070203.wav,stimuli/Charlie/000101.wav,stimuli/Laker/020000.wav,NA,1,-24dB,PercTri,W_4,1,1,0,0,0
10,stimuli/tones/PercTri-27dB.wav,0.75,42,space,2.3668,G_2,stimuli/Baron6dB/070301.wav,stimuli/Eagle/060102.wav,stimuli/Charlie/000003.wav,NA,1,-27dB,PercTri,G_2,1,1,0,0,0
10,stimuli/tones/FlatIEC-27dB.wav,1.25,43,noResp,NA,G_1,stimuli/Baron6dB/070300.wav,stimuli/Ringo/010103.wav,stimuli/Arrow/040102.wav,NA,0,-27dB,Flat,G_1,1,0,1,0,0
10,stimuli/tones/silence.wav,1.25,44,space,0.1325,B_3,stimuli/Baron6dB/070002.wav,stimuli/Ringo/010300.wav,stimuli/Arrow/040003.wav,NA,0,silence,silence,B_3,1,0,0,0,1
10,stimuli/tones/FlatIEC-33dB.wav,2,45,space,3.4175,B_1,stimuli/Baron6dB/070000.wav,stimuli/Charlie/000000.wav,stimuli/Eagle/060203.wav,NA,1,-33dB,Flat,B_1,1,1,0,0,0
10,stimuli/tones/PercTri-24dB.wav,0.75,46,space,1.5424,G_3,stimuli/Baron6dB/070302.wav,stimuli/Tiger/050002.wav,stimuli/Hopper/030000.wav,NA,1,-24dB,PercTri,G_3,1,1,0,0,0
10,stimuli/tones/silence.wav,2,47,noResp,NA,W_2,stimuli/Baron6dB/070201.wav,stimuli/Eagle/060302.wav,stimuli/Charlie/000200.wav,NA,1,silence,silence,W_2,1,0,0,1,0
10,stimuli/tones/silence.wav,0.75,48,noResp,NA,B_4,stimuli/Baron6dB/070003.wav,stimuli/Ringo/010101.wav,stimuli/Tiger/050002.wav,NA,1,silence,silence,B_4,1,0,0,1,0
10,stimuli/tones/PercTri-21dB.wav,0.75,49,space,1.4423,B_1,stimuli/Baron6dB/070000.wav,stimuli/Ringo/010001.wav,stimuli/Laker/020202.wav,NA,1,-21dB,PercTri,B_1,1,1,0,0,0
10,stimuli/tones/PercTri-24dB.wav,2,50,space,3.1435,R_2,stimuli/Baron6dB/070101.wav,stimuli/Ringo/010102.wav,stimuli/Tiger/050100.wav,NA,1,-24dB,PercTri,R_2,1,1,0,0,0
10,stimuli/tones/silence.wav,1.25,51,noResp,NA,B_3,stimuli/Baron6dB/070002.wav,stimuli/Arrow/040102.wav,stimuli/Laker/020100.wav,NA,1,silence,silence,B_3,1,0,0,1,0
10,stimuli/tones/silence.wav,2,52,noResp,NA,G_3,stimuli/Baron6dB/070302.wav,stimuli/Laker/020301.wav,stimuli/Eagle/060103.wav,NA,1,silence,silence,G_3,1,0,0,1,0
10,stimuli/tones/PercTri-18dB.wav,2,53,space,2.5971,G_2,stimuli/Baron6dB/070301.wav,stimuli/Ringo/010003.wav,stimuli/Laker/020301.wav,NA,1,-18dB,PercTri,G_2,1,1,0,0,0
10,stimuli/tones/silence.wav,2,54,noResp,NA,W_1,stimuli/Baron6dB/070200.wav,stimuli/Hopper/030100.wav,stimuli/Charlie/000301.wav,NA,1,silence,silence,W_1,1,0,0,1,0
10,stimuli/tones/silence.wav,2,55,noResp,NA,W_3,stimuli/Baron6dB/070202.wav,stimuli/Laker/020001.wav,stimuli/Hopper/030102.wav,NA,1,silence,silence,W_3,1,0,0,1,0
10,stimuli/tones/silence.wav,0.75,56,noResp,NA,B_1,stimuli/Baron6dB/070100.wav,stimuli/Hopper/030101.wav,stimuli/Tiger/050102.wav,NA,1,silence,silence,R_1,0,0,0,1,0
10,stimuli/tones/PercTri-27dB.wav,2,57,space,2.4929,W_4,stimuli/Baron6dB/070203.wav,stimuli/Ringo/010203.wav,stimuli/Ringo/010301.wav,NA,1,-27dB,PercTri,W_4,1,1,0,0,0
10,stimuli/tones/silence.wav,2,58,noResp,NA,B_2,stimuli/Baron6dB/070001.wav,stimuli/Charlie/000002.wav,stimuli/Arrow/040100.wav,NA,1,silence,silence,B_2,1,0,0,1,0
10,stimuli/tones/silence.wav,2,59,noResp,NA,W_2,stimuli/Baron6dB/070201.wav,stimuli/Hopper/030202.wav,stimuli/Arrow/040103.wav,NA,1,silence,silence,W_2,1,0,0,1,0
10,stimuli/tones/silence.wav,1.25,60,noResp,NA,G_4,stimuli/Baron6dB/070303.wav,stimuli/Arrow/040103.wav,stimuli/Charlie/000303.wav,NA,1,silence,silence,G_4,1,0,0,1,0
10,stimuli/tones/silence.wav,2,61,noResp,NA,R_3,stimuli/Baron6dB/070102.wav,stimuli/Laker/020101.wav,stimuli/Arrow/040302.wav,NA,1,silence,silence,R_3,1,0,0,1,0
10,stimuli/tones/PercTri-21dB.wav,0.75,62,space,1.3824,G_1,stimuli/Baron6dB/070300.wav,stimuli/Ringo/010202.wav,stimuli/Arrow/040301.wav,NA,1,-21dB,PercTri,G_1,1,1,0,0,0
10,stimuli/tones/silence.wav,0.75,63,noResp,NA,R_4,stimuli/Baron6dB/070103.wav,stimuli/Laker/020103.wav,stimuli/Charlie/000101.wav,NA,1,silence,silence,R_4,1,0,0,1,0
10,stimuli/tones/FlatIEC-24dB.wav,2,64,space,2.5775,B_4,stimuli/Baron6dB/070003.wav,stimuli/Arrow/040200.wav,stimuli/Hopper/030302.wav,NA,1,-24dB,Flat,B_4,1,1,0,0,0
10,stimuli/tones/silence.wav,0.75,65,noResp,NA,W_1,stimuli/Baron6dB/070200.wav,stimuli/Laker/020303.wav,stimuli/Arrow/040200.wav,NA,1,silence,silence,W_1,1,0,0,1,0
10,stimuli/tones/PercTri-18dB.wav,0.75,66,space,1.2765,B_2,stimuli/Baron6dB/070001.wav,stimuli/Ringo/010200.wav,stimuli/Laker/020203.wav,NA,1,-18dB,PercTri,B_2,1,1,0,0,0
10,stimuli/tones/silence.wav,0.75,67,noResp,NA,R_3,stimuli/Baron6dB/070102.wav,stimuli/Hopper/030002.wav,stimuli/Ringo/010101.wav,NA,1,silence,silence,R_3,1,0,0,1,0
10,stimuli/tones/silence.wav,0.75,68,noResp,NA,G_1,stimuli/Baron6dB/070300.wav,stimuli/Charlie/000003.wav,stimuli/Ringo/010202.wav,NA,1,silence,silence,G_1,1,0,0,1,0
10,stimuli/tones/silence.wav,1.25,69,noResp,NA,W_3,stimuli/Baron6dB/070202.wav,stimuli/Eagle/060201.wav,stimuli/Tiger/050003.wav,NA,1,silence,silence,W_3,1,0,0,1,0
10,stimuli/tones/silence.wav,0.75,70,noResp,NA,G_4,stimuli/Baron6dB/070303.wav,stimuli/Eagle/060303.wav,stimuli/Eagle/060101.wav,NA,1,silence,silence,G_4,1,0,0,1,0
10,stimuli/tones/PercTri-24dB.wav,1.25,71,space,1.91,W_4,stimuli/Baron6dB/070203.wav,stimuli/Charlie/000300.wav,stimuli/Charlie/000102.wav,NA,1,-24dB,PercTri,W_4,1,1,0,0,0
10,stimuli/tones/silence.wav,0.75,72,noResp,NA,R_1,stimuli/Baron6dB/070100.wav,stimuli/Hopper/030001.wav,stimuli/Ringo/010102.wav,NA,1,silence,silence,R_1,1,0,0,1,0
10,stimuli/tones/silence.wav,1.25,73,noResp,NA,W_2,stimuli/Baron6dB/070201.wav,stimuli/Tiger/050000.wav,stimuli/Arrow/040203.wav,NA,1,silence,silence,W_2,1,0,0,1,0
10,stimuli/tones/FlatIEC-24dB.wav,0.75,74,space,1.9956,B_3,stimuli/Baron6dB/070002.wav,stimuli/Ringo/010302.wav,stimuli/Eagle/060201.wav,NA,1,-24dB,Flat,B_3,1,1,0,0,0
10,stimuli/tones/PercTri-27dB.wav,2,75,space,2.4438,R_4,stimuli/Baron6dB/070103.wav,stimuli/Charlie/000100.wav,stimuli/Ringo/010303.wav,NA,1,-27dB,PercTri,R_4,1,1,0,0,0
10,stimuli/tones/PercTri-30dB.wav,0.75,76,space,1.4642,G_2,stimuli/Baron6dB/070301.wav,stimuli/Eagle/060301.wav,stimuli/Arrow/040303.wav,NA,1,-30dB,PercTri,G_2,1,1,0,0,0
10,stimuli/tones/silence.wav,2,77,noResp,NA,G_3,stimuli/Baron6dB/070302.wav,stimuli/Charlie/000001.wav,stimuli/Hopper/030300.wav,NA,1,silence,silence,G_3,1,0,0,1,0
10,stimuli/tones/FlatIEC-33dB.wav,0.75,78,space,2.2783,B_4,stimuli/Baron6dB/070101.wav,stimuli/Eagle/060103.wav,stimuli/Ringo/010003.wav,NA,1,-33dB,Flat,R_2,0,1,0,0,0
10,stimuli/tones/silence.wav,0.75,79,noResp,NA,B_1,stimuli/Baron6dB/070000.wav,stimuli/Arrow/040300.wav,stimuli/Tiger/050000.wav,NA,1,silence,silence,B_1,1,0,0,1,0
10,stimuli/tones/silence.wav,1.25,80,noResp,NA,B_4,stimuli/Baron6dB/070003.wav,stimuli/Laker/020001.wav,stimuli/Charlie/000001.wav,NA,1,silence,silence,B_4,1,0,0,1,0
10,stimuli/tones/FlatIEC-24dB.wav,2,81,space,3.5706,G_3,stimuli/Baron6dB/070302.wav,stimuli/Tiger/050003.wav,stimuli/Eagle/060102.wav,NA,1,-24dB,Flat,G_3,1,1,0,0,0
10,stimuli/tones/silence.wav,1.25,82,noResp,NA,G_2,stimuli/Baron6dB/070301.wav,stimuli/Laker/020003.wav,stimuli/Tiger/050200.wav,NA,1,silence,silence,G_2,1,0,0,1,0
10,stimuli/tones/PercTri-33dB.wav,2,83,space,1.8508,R_3,stimuli/Baron6dB/070102.wav,stimuli/Laker/020002.wav,stimuli/Tiger/050203.wav,NA,1,-33dB,PercTri,R_3,1,1,0,0,0
10,stimuli/tones/silence.wav,1.25,84,noResp,NA,B_2,stimuli/Baron6dB/070001.wav,stimuli/Hopper/030103.wav,stimuli/Laker/020000.wav,NA,1,silence,silence,B_2,1,0,0,1,0
10,stimuli/tones/FlatIEC-27dB.wav,0.75,85,noResp,NA,G_4,stimuli/Baron6dB/070303.wav,stimuli/Laker/020300.wav,stimuli/Charlie/000302.wav,NA,0,-27dB,Flat,G_4,1,0,1,0,0
10,stimuli/tones/silence.wav,2,86,noResp,NA,R_2,stimuli/Baron6dB/070101.wav,stimuli/Laker/020202.wav,stimuli/Laker/020302.wav,NA,1,silence,silence,R_2,1,0,0,1,0
10,stimuli/tones/PercTri-18dB.wav,2,87,space,2.5281,B_1,stimuli/Baron6dB/070100.wav,stimuli/Hopper/030303.wav,stimuli/Ringo/010103.wav,NA,1,-18dB,PercTri,R_1,0,1,0,0,0
10,stimuli/tones/FlatIEC-30dB.wav,1.25,88,noResp,NA,B_3,stimuli/Baron6dB/070202.wav,stimuli/Arrow/040301.wav,stimuli/Arrow/040002.wav,NA,0,-30dB,Flat,W_3,0,0,1,0,0
10,stimuli/tones/FlatIEC-21dB.wav,2,89,space,3.0101,W_4,stimuli/Baron6dB/070203.wav,stimuli/Tiger/050201.wav,stimuli/Hopper/030103.wav,NA,1,-21dB,Flat,W_4,1,1,0,0,0
10,stimuli/tones/silence.wav,1.25,90,noResp,NA,W_3,stimuli/Baron6dB/070002.wav,stimuli/Charlie/000303.wav,stimuli/Eagle/060200.wav,NA,1,silence,silence,B_3,0,0,0,1,0
10,stimuli/tones/silence.wav,1.25,91,noResp,NA,W_1,stimuli/Baron6dB/070200.wav,stimuli/Eagle/060003.wav,stimuli/Arrow/040101.wav,NA,1,silence,silence,W_1,1,0,0,1,0
10,stimuli/tones/FlatIEC-18dB.wav,2,92,space,2.6378,B_1,stimuli/Baron6dB/070000.wav,stimuli/Tiger/050200.wav,stimuli/Tiger/050101.wav,NA,1,-18dB,Flat,B_1,1,1,0,0,0
10,stimuli/tones/silence.wav,2,93,noResp,NA,R_4,stimuli/Baron6dB/070103.wav,stimuli/Arrow/040302.wav,stimuli/Charlie/000203.wav,NA,1,silence,silence,R_4,1,0,0,1,0
10,stimuli/tones/silence.wav,1.25,94,noResp,NA,W_2,stimuli/Baron6dB/070201.wav,stimuli/Hopper/030301.wav,stimuli/Tiger/050001.wav,NA,1,silence,silence,W_2,1,0,0,1,0
10,stimuli/tones/PercTri-18dB.wav,1.25,95,space,1.8154,G_1,stimuli/Baron6dB/070300.wav,stimuli/Eagle/060300.wav,stimuli/Charlie/000000.wav,NA,1,-18dB,PercTri,G_1,1,1,0,0,0
10,stimuli/tones/silence.wav,2,96,noResp,NA,R_1,stimuli/Baron6dB/070101.wav,stimuli/Hopper/030200.wav,stimuli/Laker/020002.wav,NA,1,silence,silence,R_2,0,0,0,1,0
10,stimuli/tones/FlatIEC-30dB.wav,1.25,97,noResp,NA,W_2,stimuli/Baron6dB/070201.wav,stimuli/Charlie/000203.wav,stimuli/Ringo/010300.wav,NA,0,-30dB,Flat,W_2,1,0,1,0,0
10,stimuli/tones/PercTri-33dB.wav,0.75,98,space,1.4448,W_1,stimuli/Baron6dB/070200.wav,stimuli/Ringo/010303.wav,stimuli/Laker/020103.wav,NA,1,-33dB,PercTri,W_1,1,1,0,0,0
10,stimuli/tones/FlatIEC-27dB.wav,2,99,space,2.8038,B_1,stimuli/Baron6dB/070000.wav,stimuli/Arrow/040203.wav,stimuli/Ringo/010001.wav,NA,1,-27dB,Flat,B_1,1,1,0,0,0
10,stimuli/tones/PercTri-30dB.wav,1.25,100,space,2.8094,W_3,stimuli/Baron6dB/070202.wav,stimuli/Eagle/060002.wav,stimuli/Arrow/040000.wav,NA,1,-30dB,PercTri,W_3,1,1,0,0,0
10,stimuli/tones/silence.wav,1.25,101,noResp,NA,G_2,stimuli/Baron6dB/070301.wav,stimuli/Eagle/060203.wav,stimuli/Tiger/050202.wav,NA,1,silence,silence,G_2,1,0,0,1,0
10,stimuli/tones/silence.wav,1.25,102,space,1.8001,W_4,stimuli/Baron6dB/070103.wav,stimuli/Hopper/030003.wav,stimuli/Laker/020101.wav,NA,0,silence,silence,R_4,0,0,0,0,1
10,stimuli/tones/silence.wav,2,103,space,2.6434,B_4,stimuli/Baron6dB/070002.wav,stimuli/Ringo/010100.wav,stimuli/Eagle/060003.wav,NA,0,silence,silence,B_3,0,0,0,0,1
10,stimuli/tones/silence.wav,0.75,104,noResp,NA,R_3,stimuli/Baron6dB/070102.wav,stimuli/Arrow/040202.wav,stimuli/Laker/020003.wav,NA,1,silence,silence,R_3,1,0,0,1,0
10,stimuli/tones/silence.wav,0.75,105,noResp,NA,G_4,stimuli/Baron6dB/070303.wav,stimuli/Charlie/000102.wav,stimuli/Eagle/060301.wav,NA,1,silence,silence,G_4,1,0,0,1,0
10,stimuli/tones/PercTri-24dB.wav,1.25,106,space,1.6688,R_1,stimuli/Baron6dB/070100.wav,stimuli/Tiger/050100.wav,stimuli/Charlie/000100.wav,NA,1,-24dB,PercTri,R_1,1,1,0,0,0
10,stimuli/tones/silence.wav,2,107,noResp,NA,W_4,stimuli/Baron6dB/070203.wav,stimuli/Charlie/000200.wav,stimuli/Ringo/010302.wav,NA,1,silence,silence,W_4,1,0,0,1,0
10,stimuli/tones/silence.wav,0.75,108,noResp,NA,G_3,stimuli/Baron6dB/070302.wav,stimuli/Arrow/040201.wav,stimuli/Eagle/060002.wav,NA,1,silence,silence,G_3,1,0,0,1,0
10,stimuli/tones/silence.wav,2,109,noResp,NA,B_2,stimuli/Baron6dB/070001.wav,stimuli/Charlie/000302.wav,stimuli/Charlie/000202.wav,NA,1,silence,silence,B_2,1,0,0,1,0
10,stimuli/tones/FlatIEC-24dB.wav,1.25,110,space,2.0603,B_4,stimuli/Baron6dB/070003.wav,stimuli/Tiger/050202.wav,stimuli/Ringo/010000.wav,NA,1,-24dB,Flat,B_4,1,1,0,0,0
10,stimuli/tones/silence.wav,1.25,111,noResp,NA,G_1,stimuli/Baron6dB/070300.wav,stimuli/Arrow/040001.wav,stimuli/Eagle/060202.wav,NA,1,silence,silence,G_1,1,0,0,1,0
10,stimuli/tones/FlatIEC-21dB.wav,2,112,space,2.8283,B_1,stimuli/Baron6dB/070000.wav,stimuli/Ringo/010103.wav,stimuli/Eagle/060203.wav,NA,1,-21dB,Flat,B_1,1,1,0,0,0
10,stimuli/tones/PercTri-27dB.wav,0.75,113,space,1.6263,R_4,stimuli/Baron6dB/070103.wav,stimuli/Laker/020100.wav,stimuli/Laker/020201.wav,NA,1,-27dB,PercTri,R_4,1,1,0,0,0
10,stimuli/tones/PercTri-30dB.wav,2,114,noResp,NA,W_3,stimuli/Baron6dB/070202.wav,stimuli/Tiger/050203.wav,stimuli/Eagle/060001.wav,NA,0,-30dB,PercTri,W_3,1,0,1,0,0
10,stimuli/tones/FlatIEC-30dB.wav,1.25,115,space,0.8772,B_4,stimuli/Baron6dB/070003.wav,stimuli/Eagle/060203.wav,stimuli/Eagle/060103.wav,NA,1,-30dB,Flat,B_4,1,1,0,0,0
10,stimuli/tones/silence.wav,2,116,noResp,NA,R_3,stimuli/Baron6dB/070102.wav,stimuli/Arrow/040300.wav,stimuli/Laker/020303.wav,NA,1,silence,silence,R_3,1,0,0,1,0
10,stimuli/tones/silence.wav,1.25,117,noResp,NA,R_2,stimuli/Baron6dB/070101.wav,stimuli/Eagle/060201.wav,stimuli/Arrow/040200.wav,NA,1,silence,silence,R_2,1,0,0,1,0
10,stimuli/tones/PercTri-30dB.wav,2,118,space,3.9544,G_2,stimuli/Baron6dB/070301.wav,stimuli/Arrow/040203.wav,stimuli/Arrow/040203.wav,NA,1,-30dB,PercTri,G_2,1,1,0,0,0
10,stimuli/tones/PercTri-27dB.wav,1.25,119,space,2.0524,B_3,stimuli/Baron6dB/070302.wav,stimuli/Hopper/030003.wav,stimuli/Ringo/010000.wav,NA,1,-27dB,PercTri,G_3,0,1,0,0,0
10,stimuli/tones/FlatIEC-33dB.wav,1.25,120,space,2.7281,W_4,stimuli/Baron6dB/070203.wav,stimuli/Laker/020301.wav,stimuli/Hopper/030001.wav,NA,1,-33dB,Flat,W_4,1,1,0,0,0
10,stimuli/tones/silence.wav,1.25,121,noResp,NA,B_2,stimuli/Baron6dB/070001.wav,stimuli/Ringo/010001.wav,stimuli/Laker/020100.wav,NA,1,silence,silence,B_2,1,0,0,1,0
10,stimuli/tones/silence.wav,0.75,122,noResp,NA,W_2,stimuli/Baron6dB/070201.wav,stimuli/Hopper/030302.wav,stimuli/Charlie/000303.wav,NA,1,silence,silence,W_2,1,0,0,1,0
10,stimuli/tones/FlatIEC-27dB.wav,0.75,123,space,2.8498,G_1,stimuli/Baron6dB/070300.wav,stimuli/Charlie/000300.wav,stimuli/Hopper/030301.wav,NA,1,-27dB,Flat,G_1,1,1,0,0,0
10,stimuli/tones/PercTri-18dB.wav,2,124,space,2.9763,R_1,stimuli/Baron6dB/070100.wav,stimuli/Tiger/050102.wav,stimuli/Laker/020101.wav,NA,1,-18dB,PercTri,R_1,1,1,0,0,0
10,stimuli/tones/silence.wav,0.75,125,noResp,NA,G_4,stimuli/Baron6dB/070303.wav,stimuli/Tiger/050002.wav,stimuli/Ringo/010202.wav,NA,1,silence,silence,G_4,1,0,0,1,0
10,stimuli/tones/PercTri-18dB.wav,0.75,126,space,1.3833,W_1,stimuli/Baron6dB/070200.wav,stimuli/Arrow/040302.wav,stimuli/Charlie/000202.wav,NA,1,-18dB,PercTri,W_1,1,1,0,0,0
10,stimuli/tones/FlatIEC-27dB.wav,2,127,space,2.8679,B_3,stimuli/Baron6dB/070002.wav,stimuli/Ringo/010302.wav,stimuli/Arrow/040002.wav,NA,1,-27dB,Flat,B_3,1,1,0,0,0
10,stimuli/tones/FlatIEC-21dB.wav,1.25,128,space,2.2299,B_3,stimuli/Baron6dB/070001.wav,stimuli/Hopper/030202.wav,stimuli/Laker/020002.wav,NA,1,-21dB,Flat,B_2,0,1,0,0,0
10,stimuli/tones/FlatIEC-33dB.wav,1.25,129,space,2.5482,W_2,stimuli/Baron6dB/070201.wav,stimuli/Charlie/000103.wav,stimuli/Eagle/060300.wav,NA,1,-33dB,Flat,W_2,1,1,0,0,0
10,stimuli/tones/silence.wav,2,130,noResp,NA,W_1,stimuli/Baron6dB/070100.wav,stimuli/Arrow/040101.wav,stimuli/Hopper/030203.wav,NA,1,silence,silence,R_1,0,0,0,1,0
10,stimuli/tones/FlatIEC-30dB.wav,0.75,131,noResp,NA,W_1,stimuli/Baron6dB/070200.wav,stimuli/Charlie/000303.wav,stimuli/Laker/020000.wav,NA,0,-30dB,Flat,W_1,1,0,1,0,0
10,stimuli/tones/FlatIEC-27dB.wav,1.25,132,space,2.4603,B_3,stimuli/Baron6dB/070002.wav,stimuli/Tiger/050000.wav,stimuli/Laker/020001.wav,NA,1,-27dB,Flat,B_3,1,1,0,0,0
10,stimuli/tones/PercTri-21dB.wav,2,133,space,2.6265,B_4,stimuli/Baron6dB/070203.wav,stimuli/Arrow/040000.wav,stimuli/Arrow/040003.wav,NA,1,-21dB,PercTri,W_4,0,1,0,0,0
10,stimuli/tones/silence.wav,0.75,134,noResp,NA,G_2,stimuli/Baron6dB/070301.wav,stimuli/Hopper/030002.wav,stimuli/Ringo/010203.wav,NA,1,silence,silence,G_2,1,0,0,1,0
10,stimuli/tones/PercTri-27dB.wav,1.25,135,space,1.8495,R_4,stimuli/Baron6dB/070103.wav,stimuli/Arrow/040002.wav,stimuli/Eagle/060301.wav,NA,1,-27dB,PercTri,R_4,1,1,0,0,0
10,stimuli/tones/silence.wav,1.25,136,noResp,NA,R_2,stimuli/Baron6dB/070101.wav,stimuli/Arrow/040202.wav,stimuli/Tiger/050200.wav,NA,1,silence,silence,R_2,1,0,0,1,0
10,stimuli/tones/PercTri-21dB.wav,1.25,137,space,1.9267,R_3,stimuli/Baron6dB/070102.wav,stimuli/Hopper/030001.wav,stimuli/Laker/020102.wav,NA,1,-21dB,PercTri,R_3,1,1,0,0,0
10,stimuli/tones/FlatIEC-24dB.wav,2,138,space,2.727,G_4,stimuli/Baron6dB/070303.wav,stimuli/Tiger/050200.wav,stimuli/Ringo/010303.wav,NA,1,-24dB,Flat,G_4,1,1,0,0,0
10,stimuli/tones/PercTri-27dB.wav,1.25,139,space,1.8427,W_3,stimuli/Baron6dB/070202.wav,stimuli/Hopper/030203.wav,stimuli/Hopper/030000.wav,NA,1,-27dB,PercTri,W_3,1,1,0,0,0
10,stimuli/tones/PercTri-21dB.wav,2,140,space,2.5774,B_4,stimuli/Baron6dB/070003.wav,stimuli/Eagle/060102.wav,stimuli/Ringo/010101.wav,NA,1,-21dB,PercTri,B_4,1,1,0,0,0
10,stimuli/tones/FlatIEC-33dB.wav,0.75,141,noResp,NA,G_3,stimuli/Baron6dB/070302.wav,stimuli/Tiger/050003.wav,stimuli/Arrow/040000.wav,NA,0,-33dB,Flat,G_3,1,0,1,0,0
10,stimuli/tones/PercTri-33dB.wav,1.25,142,space,2.2338,B_1,stimuli/Baron6dB/070000.wav,stimuli/Hopper/030102.wav,stimuli/Hopper/030102.wav,NA,1,-33dB,PercTri,B_1,1,1,0,0,0
10,stimuli/tones/FlatIEC-33dB.wav,2,143,space,2.8118,G_1,stimuli/Baron6dB/070300.wav,stimuli/Ringo/010202.wav,stimuli/Charlie/000102.wav,NA,1,-33dB,Flat,G_1,1,1,0,0,0
10,stimuli/tones/silence.wav,0.75,144,noResp,NA,R_4,stimuli/Baron6dB/070103.wav,stimuli/Laker/020203.wav,stimuli/Ringo/010001.wav,NA,1,silence,silence,R_4,1,0,0,1,0
10,stimuli/tones/FlatIEC-21dB.wav,2,145,space,3.3149,G_3,stimuli/Baron6dB/070302.wav,stimuli/Charlie/000200.wav,stimuli/Tiger/050102.wav,NA,1,-21dB,Flat,G_3,1,1,0,0,0
10,stimuli/tones/silence.wav,1.25,146,noResp,NA,R_3,stimuli/Baron6dB/070102.wav,stimuli/Eagle/060301.wav,stimuli/Tiger/050103.wav,NA,1,silence,silence,R_3,1,0,0,1,0
10,stimuli/tones/silence.wav,1.25,147,noResp,NA,B_4,stimuli/Baron6dB/070003.wav,stimuli/Arrow/040303.wav,stimuli/Ringo/010100.wav,NA,1,silence,silence,B_4,1,0,0,1,0
10,stimuli/tones/PercTri-24dB.wav,0.75,148,space,1.2718,G_1,stimuli/Baron6dB/070300.wav,stimuli/Laker/020101.wav,stimuli/Hopper/030200.wav,NA,1,-24dB,PercTri,G_1,1,1,0,0,0
10,stimuli/tones/silence.wav,2,149,noResp,NA,B_2,stimuli/Baron6dB/070001.wav,stimuli/Laker/020003.wav,stimuli/Charlie/000003.wav,NA,1,silence,silence,B_2,1,0,0,1,0
10,stimuli/tones/silence.wav,2,150,noResp,NA,R_1,stimuli/Baron6dB/070100.wav,stimuli/Eagle/060000.wav,stimuli/Laker/020103.wav,NA,1,silence,silence,R_1,1,0,0,1,0
10,stimuli/tones/PercTri-30dB.wav,0.75,151,space,1.1931,G_4,stimuli/Baron6dB/070303.wav,stimuli/Eagle/060003.wav,stimuli/Eagle/060000.wav,NA,1,-30dB,PercTri,G_4,1,1,0,0,0
10,stimuli/tones/PercTri-30dB.wav,0.75,152,space,1.7174,G_2,stimuli/Baron6dB/070301.wav,stimuli/Tiger/050100.wav,stimuli/Charlie/000000.wav,NA,1,-30dB,PercTri,G_2,1,1,0,0,0
10,stimuli/tones/PercTri-27dB.wav,2,153,space,2.428,W_3,stimuli/Baron6dB/070202.wav,stimuli/Eagle/060101.wav,stimuli/Arrow/040202.wav,NA,1,-27dB,PercTri,W_3,1,1,0,0,0
10,stimuli/tones/FlatIEC-21dB.wav,0.75,154,space,2.2813,R_1,stimuli/Baron6dB/070000.wav,stimuli/Eagle/060002.wav,stimuli/Tiger/050100.wav,NA,1,-21dB,Flat,B_1,0,1,0,0,0
10,stimuli/tones/silence.wav,2,155,noResp,NA,W_1,stimuli/Baron6dB/070200.wav,stimuli/Ringo/010000.wav,stimuli/Hopper/030302.wav,NA,1,silence,silence,W_1,1,0,0,1,0
10,stimuli/tones/FlatIEC-24dB.wav,0.75,156,space,1.7103,W_4,stimuli/Baron6dB/070203.wav,stimuli/Tiger/050001.wav,stimuli/Charlie/000001.wav,NA,1,-24dB,Flat,W_4,1,1,0,0,0
10,stimuli/tones/silence.wav,1.25,157,noResp,NA,W_2,stimuli/Baron6dB/070201.wav,stimuli/Arrow/040200.wav,stimuli/Arrow/040300.wav,NA,1,silence,silence,W_2,1,0,0,1,0
10,stimuli/tones/silence.wav,0.75,158,noResp,NA,R_2,stimuli/Baron6dB/070101.wav,stimuli/Hopper/030300.wav,stimuli/Laker/020001.wav,NA,1,silence,silence,R_2,1,0,0,1,0
10,stimuli/tones/silence.wav,1.25,159,noResp,NA,B_3,stimuli/Baron6dB/070002.wav,stimuli/Charlie/000101.wav,stimuli/Hopper/030103.wav,NA,1,silence,silence,B_3,1,0,0,1,0
10,stimuli/tones/silence.wav,2,160,noResp,NA,R_1,stimuli/Baron6dB/070100.wav,stimuli/Tiger/050202.wav,stimuli/Ringo/010300.wav,NA,1,silence,silence,R_1,1,0,0,1,0
10,stimuli/tones/FlatIEC-27dB.wav,0.75,161,noResp,NA,G_4,stimuli/Baron6dB/070303.wav,stimuli/Charlie/000302.wav,stimuli/Ringo/010003.wav,NA,0,-27dB,Flat,G_4,1,0,1,0,0
10,stimuli/tones/FlatIEC-18dB.wav,2,162,space,2.8009,W_4,stimuli/Baron6dB/070203.wav,stimuli/Ringo/010300.wav,stimuli/Charlie/000100.wav,NA,1,-18dB,Flat,W_4,1,1,0,0,0
10,stimuli/tones/silence.wav,0.75,163,noResp,NA,B_3,stimuli/Baron6dB/070002.wav,stimuli/Eagle/060100.wav,stimuli/Laker/020003.wav,NA,1,silence,silence,B_3,1,0,0,1,0
10,stimuli/tones/FlatIEC-18dB.wav,0.75,164,space,1.4538,G_2,stimuli/Baron6dB/070301.wav,stimuli/Charlie/000000.wav,stimuli/Charlie/000203.wav,NA,1,-18dB,Flat,G_2,1,1,0,0,0
10,stimuli/tones/silence.wav,0.75,165,noResp,NA,B_1,stimuli/Baron6dB/070000.wav,stimuli/Hopper/030201.wav,stimuli/Arrow/040103.wav,NA,1,silence,silence,B_1,1,0,0,1,0
10,stimuli/tones/silence.wav,0.75,166,noResp,NA,G_1,stimuli/Baron6dB/070300.wav,stimuli/Charlie/000301.wav,stimuli/Ringo/010302.wav,NA,1,silence,silence,G_1,1,0,0,1,0
10,stimuli/tones/FlatIEC-24dB.wav,1.25,167,space,2.3996,W_1,stimuli/Baron6dB/070200.wav,stimuli/Hopper/030103.wav,stimuli/Laker/020003.wav,NA,1,-24dB,Flat,W_1,1,1,0,0,0
10,stimuli/tones/silence.wav,0.75,168,noResp,NA,G_3,stimuli/Baron6dB/070302.wav,stimuli/Hopper/030301.wav,stimuli/Charlie/000301.wav,NA,1,silence,silence,G_3,1,0,0,1,0
10,stimuli/tones/silence.wav,0.75,169,noResp,NA,R_2,stimuli/Baron6dB/070101.wav,stimuli/Laker/020102.wav,stimuli/Laker/020202.wav,NA,1,silence,silence,R_2,1,0,0,1,0
10,stimuli/tones/silence.wav,2,170,noResp,NA,W_2,stimuli/Baron6dB/070201.wav,stimuli/Tiger/050201.wav,stimuli/Ringo/010301.wav,NA,1,silence,silence,W_2,1,0,0,1,0
10,stimuli/tones/silence.wav,2,171,space,2.496,B_4,stimuli/Baron6dB/070003.wav,stimuli/Ringo/010201.wav,stimuli/Eagle/060302.wav,NA,0,silence,silence,B_4,1,0,0,0,1
10,stimuli/tones/silence.wav,2,172,space,1.8506,W_3,stimuli/Baron6dB/070202.wav,stimuli/Arrow/040301.wav,stimuli/Tiger/050201.wav,NA,0,silence,silence,W_3,1,0,0,0,1
10,stimuli/tones/PercTri-18dB.wav,1.25,173,space,1.7434,W_3,stimuli/Baron6dB/070102.wav,stimuli/Charlie/000003.wav,stimuli/Arrow/040101.wav,NA,1,-18dB,PercTri,R_3,0,1,0,0,0
10,stimuli/tones/FlatIEC-30dB.wav,0.75,174,noResp,NA,B_2,stimuli/Baron6dB/070001.wav,stimuli/Charlie/000201.wav,stimuli/Charlie/000302.wav,NA,0,-30dB,Flat,B_2,1,0,1,0,0
10,stimuli/tones/FlatIEC-21dB.wav,0.75,175,noResp,NA,R_4,stimuli/Baron6dB/070103.wav,stimuli/Ringo/010100.wav,stimuli/Laker/020000.wav,NA,0,-21dB,Flat,R_4,1,0,1,0,0
10,stimuli/tones/PercTri-33dB.wav,2,176,space,2.5589,R_3,stimuli/Baron6dB/070102.wav,stimuli/Laker/020200.wav,stimuli/Eagle/060101.wav,NA,1,-33dB,PercTri,R_3,1,1,0,0,0
10,stimuli/tones/silence.wav,0.75,177,noResp,NA,G_4,stimuli/Baron6dB/070303.wav,stimuli/Ringo/010200.wav,stimuli/Arrow/040302.wav,NA,1,silence,silence,G_4,1,0,0,1,0
10,stimuli/tones/PercTri-24dB.wav,2,178,space,3.2615,W_1,stimuli/Baron6dB/070200.wav,stimuli/Eagle/060303.wav,stimuli/Eagle/060102.wav,NA,1,-24dB,PercTri,W_1,1,1,0,0,0
10,stimuli/tones/silence.wav,2,179,noResp,NA,B_2,stimuli/Baron6dB/070001.wav,stimuli/Charlie/000203.wav,stimuli/Hopper/030003.wav,NA,1,silence,silence,B_2,1,0,0,1,0
10,stimuli/tones/FlatIEC-33dB.wav,2,180,space,3.1163,B_4,stimuli/Baron6dB/070003.wav,stimuli/Eagle/060103.wav,stimuli/Arrow/040201.wav,NA,1,-33dB,Flat,B_4,1,1,0,0,0
10,stimuli/tones/silence.wav,2,181,noResp,NA,G_1,stimuli/Baron6dB/070300.wav,stimuli/Laker/020002.wav,stimuli/Ringo/010103.wav,NA,1,silence,silence,G_1,1,0,0,1,0
10,stimuli/tones/FlatIEC-18dB.wav,0.75,182,space,1.5288,R_4,stimuli/Baron6dB/070103.wav,stimuli/Eagle/060001.wav,stimuli/Hopper/030101.wav,NA,1,-18dB,Flat,R_4,1,1,0,0,0
10,stimuli/tones/FlatIEC-18dB.wav,1.25,183,space,2.4277,R_2,stimuli/Baron6dB/070101.wav,stimuli/Charlie/000001.wav,stimuli/Laker/020302.wav,NA,1,-18dB,Flat,R_2,1,1,0,0,0
10,stimuli/tones/silence.wav,1.25,184,noResp,NA,B_1,stimuli/Baron6dB/070000.wav,stimuli/Laker/020002.wav,stimuli/Eagle/060303.wav,NA,1,silence,silence,B_1,1,0,0,1,0
10,stimuli/tones/PercTri-30dB.wav,2,185,space,2.4351,G_3,stimuli/Baron6dB/070302.wav,stimuli/Tiger/050103.wav,stimuli/Hopper/030100.wav,NA,1,-30dB,PercTri,G_3,1,1,0,0,0
10,stimuli/tones/silence.wav,2,186,noResp,NA,B_3,stimuli/Baron6dB/070002.wav,stimuli/Ringo/010203.wav,stimuli/Laker/020002.wav,NA,1,silence,silence,B_3,1,0,0,1,0
10,stimuli/tones/PercTri-33dB.wav,1.25,187,space,1.7441,W_4,stimuli/Baron6dB/070203.wav,stimuli/Arrow/040100.wav,stimuli/Tiger/050101.wav,NA,1,-33dB,PercTri,W_4,1,1,0,0,0
10,stimuli/tones/PercTri-24dB.wav,1.25,188,space,1.8682,G_2,stimuli/Baron6dB/070301.wav,stimuli/Ringo/010101.wav,stimuli/Laker/020200.wav,NA,1,-24dB,PercTri,G_2,1,1,0,0,0
10,stimuli/tones/PercTri-18dB.wav,0.75,189,space,1.5445,W_3,stimuli/Baron6dB/070202.wav,stimuli/Hopper/030200.wav,stimuli/Hopper/030002.wav,NA,1,-18dB,PercTri,W_3,1,1,0,0,0
10,stimuli/tones/PercTri-21dB.wav,0.75,190,space,1.178,R_1,stimuli/Baron6dB/070100.wav,stimuli/Laker/020103.wav,stimuli/Arrow/040001.wav,NA,1,-21dB,PercTri,R_1,1,1,0,0,0
10,stimuli/tones/FlatIEC-30dB.wav,2,191,noResp,NA,W_2,stimuli/Baron6dB/070201.wav,stimuli/Eagle/060302.wav,stimuli/Tiger/050000.wav,NA,0,-30dB,Flat,W_2,1,0,1,0,0
10,stimuli/tones/PercTri-27dB.wav,0.75,192,space,1.6126,W_2,stimuli/Baron6dB/070201.wav,stimuli/Eagle/060300.wav,stimuli/Hopper/030300.wav,NA,1,-27dB,PercTri,W_2,1,1,0,0,0
10,stimuli/tones/silence.wav,2,193,noResp,NA,B_3,stimuli/Baron6dB/070002.wav,stimuli/Charlie/000202.wav,stimuli/Charlie/000200.wav,NA,1,silence,silence,B_3,1,0,0,1,0
10,stimuli/tones/FlatIEC-18dB.wav,2,194,space,2.6608,G_1,stimuli/Baron6dB/070300.wav,stimuli/Laker/020000.wav,stimuli/Laker/020203.wav,NA,1,-18dB,Flat,G_1,1,1,0,0,0
10,stimuli/tones/silence.wav,0.75,195,noResp,NA,W_1,stimuli/Baron6dB/070200.wav,stimuli/Laker/020001.wav,stimuli/Eagle/060200.wav,NA,1,silence,silence,W_1,1,0,0,1,0
10,stimuli/tones/silence.wav,0.75,196,noResp,NA,G_3,stimuli/Baron6dB/070302.wav,stimuli/Arrow/040102.wav,stimuli/Ringo/010102.wav,NA,1,silence,silence,G_3,1,0,0,1,0
10,stimuli/tones/silence.wav,1.25,197,space,2.3942,G_2,stimuli/Baron6dB/070101.wav,stimuli/Ringo/010102.wav,stimuli/Tiger/050203.wav,NA,0,silence,silence,R_2,0,0,0,0,1
10,stimuli/tones/silence.wav,0.75,198,noResp,NA,R_1,stimuli/Baron6dB/070100.wav,stimuli/Arrow/040103.wav,stimuli/Charlie/000103.wav,NA,1,silence,silence,R_1,1,0,0,1,0
10,stimuli/tones/FlatIEC-24dB.wav,1.25,199,space,1.9419,G_4,stimuli/Baron6dB/070303.wav,stimuli/Laker/020302.wav,stimuli/Tiger/050001.wav,NA,1,-24dB,Flat,G_4,1,1,0,0,0
10,stimuli/tones/silence.wav,2,200,noResp,NA,G_2,stimuli/Baron6dB/070001.wav,stimuli/Ringo/010002.wav,stimuli/Hopper/030202.wav,NA,1,silence,silence,B_2,0,0,0,1,0
10,stimuli/tones/PercTri-18dB.wav,1.25,201,space,1.577,G_2,stimuli/Baron6dB/070301.wav,stimuli/Arrow/040001.wav,stimuli/Eagle/060002.wav,NA,1,-18dB,PercTri,G_2,1,1,0,0,0
10,stimuli/tones/silence.wav,1.25,202,noResp,NA,R_4,stimuli/Baron6dB/070103.wav,stimuli/Charlie/000002.wav,stimuli/Charlie/000201.wav,NA,1,silence,silence,R_4,1,0,0,1,0
10,stimuli/tones/FlatIEC-30dB.wav,2,203,space,2.5758,W_4,stimuli/Baron6dB/070203.wav,stimuli/Eagle/060202.wav,stimuli/Hopper/030303.wav,NA,1,-30dB,Flat,W_4,1,1,0,0,0
10,stimuli/tones/silence.wav,1.25,204,noResp,NA,B_1,stimuli/Baron6dB/070000.wav,stimuli/Hopper/030000.wav,stimuli/Tiger/050002.wav,NA,1,silence,silence,B_1,1,0,0,1,0
10,stimuli/tones/FlatIEC-24dB.wav,0.75,205,noResp,NA,R_3,stimuli/Baron6dB/070102.wav,stimuli/Charlie/000102.wav,stimuli/Ringo/010002.wav,NA,0,-24dB,Flat,R_3,1,0,1,0,0
10,stimuli/tones/PercTri-33dB.wav,2,206,space,2.5943,B_4,stimuli/Baron6dB/070003.wav,stimuli/Laker/020300.wav,stimuli/Charlie/000101.wav,NA,1,-33dB,PercTri,B_4,1,1,0,0,0
10,stimuli/tones/PercTri-33dB.wav,0.75,207,space,1.6654,W_3,stimuli/Baron6dB/070202.wav,stimuli/Ringo/010003.wav,stimuli/Charlie/000300.wav,NA,1,-33dB,PercTri,W_3,1,1,0,0,0
10,stimuli/tones/silence.wav,2,208,noResp,NA,W_1,stimuli/Baron6dB/070200.wav,stimuli/Ringo/010303.wav,stimuli/Arrow/040301.wav,NA,1,silence,silence,W_1,1,0,0,1,0
10,stimuli/tones/PercTri-33dB.wav,1.25,209,space,1.8434,W_4,stimuli/Baron6dB/070103.wav,stimuli/Laker/020303.wav,stimuli/Eagle/060202.wav,NA,1,-33dB,PercTri,R_4,0,1,0,0,0
10,stimuli/tones/silence.wav,1.25,210,noResp,NA,R_1,stimuli/Baron6dB/070100.wav,stimuli/Laker/020202.wav,stimuli/Eagle/060201.wav,NA,1,silence,silence,R_1,1,0,0,1,0
10,stimuli/tones/FlatIEC-21dB.wav,1.25,211,space,2.7043,G_1,stimuli/Baron6dB/070300.wav,stimuli/Charlie/000100.wav,stimuli/Laker/020301.wav,NA,1,-21dB,Flat,G_1,1,1,0,0,0
10,stimuli/tones/silence.wav,0.75,212,noResp,NA,G_2,stimuli/Baron6dB/070301.wav,stimuli/Tiger/050101.wav,stimuli/Arrow/040303.wav,NA,1,silence,silence,G_2,1,0,0,1,0
10,stimuli/tones/FlatIEC-30dB.wav,2,213,space,2.8115,B_3,stimuli/Baron6dB/070002.wav,stimuli/Hopper/030101.wav,stimuli/Arrow/040100.wav,NA,1,-30dB,Flat,B_3,1,1,0,0,0
10,stimuli/tones/silence.wav,2,214,noResp,NA,W_2,stimuli/Baron6dB/070201.wav,stimuli/Arrow/040201.wav,stimuli/Ringo/010201.wav,NA,1,silence,silence,W_2,1,0,0,1,0
10,stimuli/tones/PercTri-21dB.wav,1.25,215,space,2.1278,W_4,stimuli/Baron6dB/070203.wav,stimuli/Arrow/040003.wav,stimuli/Hopper/030201.wav,NA,1,-21dB,PercTri,W_4,1,1,0,0,0
11,stimuli/tones/PercTri-27dB.wav,2,0,space,4.8109,B_2,stimuli/Baron6dB/070003.wav,stimuli/Ringo/010101.wav,stimuli/Ringo/010000.wav,NA,1,-27dB,PercTri,B_4,0,1,0,0,0
11,stimuli/tones/PercTri-30dB.wav,0.75,1,space,1.1813,W_2,stimuli/Baron6dB/070201.wav,stimuli/Eagle/060102.wav,stimuli/Arrow/040102.wav,NA,1,-30dB,PercTri,W_2,1,1,0,0,0
11,stimuli/tones/PercTri-27dB.wav,1.25,2,space,1.7142,R_4,stimuli/Baron6dB/070200.wav,stimuli/Charlie/000103.wav,stimuli/Charlie/000303.wav,NA,1,-27dB,PercTri,W_1,0,1,0,0,0
11,stimuli/tones/silence.wav,0.75,3,space,1.4258,G_4,stimuli/Baron6dB/070202.wav,stimuli/Laker/020300.wav,stimuli/Charlie/000100.wav,NA,0,silence,silence,W_3,0,0,0,0,1
11,stimuli/tones/silence.wav,0.75,4,noResp,NA,B_4,stimuli/Baron6dB/070300.wav,stimuli/Tiger/050003.wav,stimuli/Charlie/000003.wav,NA,1,silence,silence,G_1,0,0,0,1,0
11,stimuli/tones/PercTri-24dB.wav,1.25,5,space,1.7484,G_1,stimuli/Baron6dB/070203.wav,stimuli/Hopper/030103.wav,stimuli/Tiger/050100.wav,NA,1,-24dB,PercTri,W_4,0,1,0,0,0
11,stimuli/tones/silence.wav,0.75,6,noResp,NA,W_3,stimuli/Baron6dB/070302.wav,stimuli/Arrow/040101.wav,stimuli/Arrow/040202.wav,NA,1,silence,silence,G_3,0,0,0,1,0
11,stimuli/tones/FlatIEC-30dB.wav,0.75,7,noResp,NA,B_4,stimuli/Baron6dB/070103.wav,stimuli/Charlie/000002.wav,stimuli/Ringo/010103.wav,NA,0,-30dB,Flat,R_4,0,0,1,0,0
11,stimuli/tones/silence.wav,2,8,noResp,NA,R_4,stimuli/Baron6dB/070303.wav,stimuli/Charlie/000001.wav,stimuli/Hopper/030200.wav,NA,1,silence,silence,G_4,0,0,0,1,0
11,stimuli/tones/PercTri-33dB.wav,0.75,9,space,1.344,G_2,stimuli/Baron6dB/070102.wav,stimuli/Laker/020002.wav,stimuli/Ringo/010101.wav,NA,1,-33dB,PercTri,R_3,0,1,0,0,0
11,stimuli/tones/silence.wav,0.75,10,noResp,NA,B_2,stimuli/Baron6dB/070000.wav,stimuli/Arrow/040300.wav,stimuli/Eagle/060101.wav,NA,1,silence,silence,B_1,0,0,0,1,0
11,stimuli/tones/silence.wav,2,11,noResp,NA,B_2,stimuli/Baron6dB/070301.wav,stimuli/Charlie/000202.wav,stimuli/Tiger/050000.wav,NA,1,silence,silence,G_2,0,0,0,1,0
11,stimuli/tones/FlatIEC-30dB.wav,0.75,12,noResp,NA,B_2,stimuli/Baron6dB/070001.wav,stimuli/Ringo/010001.wav,stimuli/Eagle/060102.wav,NA,0,-30dB,Flat,B_2,1,0,1,0,0
11,stimuli/tones/silence.wav,2,13,noResp,NA,G_3,stimuli/Baron6dB/070002.wav,stimuli/Charlie/000000.wav,stimuli/Charlie/000002.wav,NA,1,silence,silence,B_3,0,0,0,1,0
11,stimuli/tones/FlatIEC-24dB.wav,2,14,space,2.748,R_4,stimuli/Baron6dB/070101.wav,stimuli/Laker/020302.wav,stimuli/Arrow/040003.wav,NA,1,-24dB,Flat,R_2,0,1,0,0,0
11,stimuli/tones/FlatIEC-30dB.wav,0.75,15,space,2.3609,W_1,stimuli/Baron6dB/070100.wav,stimuli/Ringo/010203.wav,stimuli/Charlie/000000.wav,NA,1,-30dB,Flat,R_1,0,1,0,0,0
11,stimuli/tones/silence.wav,2,16,noResp,NA,B_2,stimuli/Baron6dB/070002.wav,stimuli/Hopper/030300.wav,stimuli/Laker/020001.wav,NA,1,silence,silence,B_3,0,0,0,1,0
11,stimuli/tones/PercTri-18dB.wav,1.25,17,space,1.8855,R_2,stimuli/Baron6dB/070101.wav,stimuli/Arrow/040000.wav,stimuli/Ringo/010100.wav,NA,1,-18dB,PercTri,R_2,1,1,0,0,0
11,stimuli/tones/silence.wav,2,18,noResp,NA,W_2,stimuli/Baron6dB/070201.wav,stimuli/Charlie/000203.wav,stimuli/Hopper/030001.wav,NA,1,silence,silence,W_2,1,0,0,1,0
11,stimuli/tones/silence.wav,2,19,noResp,NA,R_3,stimuli/Baron6dB/070001.wav,stimuli/Ringo/010303.wav,stimuli/Hopper/030202.wav,NA,1,silence,silence,B_2,0,0,0,1,0
11,stimuli/tones/PercTri-18dB.wav,2,20,space,4.7364,W_3,stimuli/Baron6dB/070200.wav,stimuli/Laker/020100.wav,stimuli/Laker/020302.wav,NA,1,-18dB,PercTri,W_1,0,1,0,0,0
11,stimuli/tones/silence.wav,1.25,21,noResp,NA,B_4,stimuli/Baron6dB/070303.wav,stimuli/Charlie/000300.wav,stimuli/Ringo/010003.wav,NA,1,silence,silence,G_4,0,0,0,1,0
11,stimuli/tones/PercTri-24dB.wav,2,22,space,2.6189,B_1,stimuli/Baron6dB/070000.wav,stimuli/Eagle/060002.wav,stimuli/Charlie/000300.wav,NA,1,-24dB,PercTri,B_1,1,1,0,0,0
11,stimuli/tones/silence.wav,0.75,23,space,2.7324,W_4,stimuli/Baron6dB/070203.wav,stimuli/Ringo/010000.wav,stimuli/Ringo/010301.wav,NA,0,silence,silence,W_4,1,0,0,0,1
11,stimuli/tones/silence.wav,0.75,24,noResp,NA,G_2,stimuli/Baron6dB/070301.wav,stimuli/Ringo/010103.wav,stimuli/Hopper/030100.wav,NA,1,silence,silence,G_2,1,0,0,1,0
11,stimuli/tones/silence.wav,2,25,noResp,NA,B_4,stimuli/Baron6dB/070003.wav,stimuli/Tiger/050001.wav,stimuli/Tiger/050002.wav,NA,1,silence,silence,B_4,1,0,0,1,0
11,stimuli/tones/PercTri-21dB.wav,1.25,26,space,1.7178,G_3,stimuli/Baron6dB/070202.wav,stimuli/Eagle/060000.wav,stimuli/Laker/020100.wav,NA,1,-21dB,PercTri,W_3,0,1,0,0,0
11,stimuli/tones/silence.wav,0.75,27,noResp,NA,R_4,stimuli/Baron6dB/070100.wav,stimuli/Arrow/040100.wav,stimuli/Tiger/050103.wav,NA,1,silence,silence,R_1,0,0,0,1,0
11,stimuli/tones/silence.wav,0.75,28,noResp,NA,R_3,stimuli/Baron6dB/070103.wav,stimuli/Eagle/060201.wav,stimuli/Ringo/010002.wav,NA,1,silence,silence,R_4,0,0,0,1,0
11,stimuli/tones/PercTri-24dB.wav,1.25,29,space,1.7696,G_4,stimuli/Baron6dB/070302.wav,stimuli/Arrow/040201.wav,stimuli/Ringo/010300.wav,NA,1,-24dB,PercTri,G_3,0,1,0,0,0
11,stimuli/tones/FlatIEC-27dB.wav,2,30,space,3.4126,R_4,stimuli/Baron6dB/070102.wav,stimuli/Laker/020003.wav,stimuli/Hopper/030101.wav,NA,1,-27dB,Flat,R_3,0,1,0,0,0
11,stimuli/tones/PercTri-27dB.wav,0.75,31,space,1.3826,B_3,stimuli/Baron6dB/070300.wav,stimuli/Arrow/040003.wav,stimuli/Tiger/050102.wav,NA,1,-27dB,PercTri,G_1,0,1,0,0,0
11,stimuli/tones/silence.wav,1.25,32,noResp,NA,W_1,stimuli/Baron6dB/070102.wav,stimuli/Ringo/010003.wav,stimuli/Laker/020200.wav,NA,1,silence,silence,R_3,0,0,0,1,0
11,stimuli/tones/silence.wav,2,33,noResp,NA,B_1,stimuli/Baron6dB/070001.wav,stimuli/Charlie/000100.wav,stimuli/Laker/020000.wav,NA,1,silence,silence,B_2,0,0,0,1,0
11,stimuli/tones/FlatIEC-21dB.wav,0.75,34,space,1.4158,W_1,stimuli/Baron6dB/070203.wav,stimuli/Charlie/000003.wav,stimuli/Eagle/060200.wav,NA,1,-21dB,Flat,W_4,0,1,0,0,0
11,stimuli/tones/FlatIEC-30dB.wav,2,35,space,3.1659,B_1,stimuli/Baron6dB/070302.wav,stimuli/Laker/020000.wav,stimuli/Arrow/040000.wav,NA,1,-30dB,Flat,G_3,0,1,0,0,0
11,stimuli/tones/silence.wav,0.75,36,noResp,NA,G_1,stimuli/Baron6dB/070003.wav,stimuli/Arrow/040303.wav,stimuli/Eagle/060300.wav,NA,1,silence,silence,B_4,0,0,0,1,0
11,stimuli/tones/silence.wav,0.75,37,space,1.9539,B_4,stimuli/Baron6dB/070300.wav,stimuli/Laker/020301.wav,stimuli/Charlie/000103.wav,NA,0,silence,silence,G_1,0,0,0,0,1
11,stimuli/tones/PercTri-30dB.wav,1.25,38,space,2.1619,B_2,stimuli/Baron6dB/070000.wav,stimuli/Hopper/030003.wav,stimuli/Eagle/060001.wav,NA,1,-30dB,PercTri,B_1,0,1,0,0,0
11,stimuli/tones/silence.wav,2,39,noResp,NA,G_4,stimuli/Baron6dB/070202.wav,stimuli/Laker/020203.wav,stimuli/Eagle/060103.wav,NA,1,silence,silence,W_3,0,0,0,1,0
11,stimuli/tones/PercTri-30dB.wav,0.75,40,space,1.268,G_4,stimuli/Baron6dB/070101.wav,stimuli/Hopper/030100.wav,stimuli/Hopper/030303.wav,NA,1,-30dB,PercTri,R_2,0,1,0,0,0
11,stimuli/tones/silence.wav,0.75,41,noResp,NA,R_2,stimuli/Baron6dB/070301.wav,stimuli/Eagle/060301.wav,stimuli/Laker/020102.wav,NA,1,silence,silence,G_2,0,0,0,1,0
11,stimuli/tones/PercTri-24dB.wav,0.75,42,space,1.2001,B_4,stimuli/Baron6dB/070201.wav,stimuli/Hopper/030000.wav,stimuli/Laker/020303.wav,NA,1,-24dB,PercTri,W_2,0,1,0,0,0
11,stimuli/tones/FlatIEC-27dB.wav,1.25,43,space,2.8515,B_4,stimuli/Baron6dB/070303.wav,stimuli/Hopper/030303.wav,stimuli/Eagle/060201.wav,NA,1,-27dB,Flat,G_4,0,1,0,0,0
11,stimuli/tones/PercTri-27dB.wav,2,44,space,3.4822,B_4,stimuli/Baron6dB/070002.wav,stimuli/Eagle/060200.wav,stimuli/Arrow/040303.wav,NA,1,-27dB,PercTri,B_3,0,1,0,0,0
11,stimuli/tones/PercTri-30dB.wav,2,45,space,2.4992,G_3,stimuli/Baron6dB/070103.wav,stimuli/Ringo/010102.wav,stimuli/Ringo/010102.wav,NA,1,-30dB,PercTri,R_4,0,1,0,0,0
11,stimuli/tones/FlatIEC-27dB.wav,0.75,46,space,0.794,W_4,stimuli/Baron6dB/070200.wav,stimuli/Tiger/050201.wav,stimuli/Arrow/040203.wav,NA,1,-27dB,Flat,W_1,0,1,0,0,0
11,stimuli/tones/silence.wav,2,47,noResp,NA,R_2,stimuli/Baron6dB/070100.wav,stimuli/Ringo/010002.wav,stimuli/Tiger/050201.wav,NA,1,silence,silence,R_1,0,0,0,1,0
11,stimuli/tones/silence.wav,2,48,noResp,NA,W_3,stimuli/Baron6dB/070301.wav,stimuli/Arrow/040203.wav,stimuli/Charlie/000302.wav,NA,1,silence,silence,G_2,0,0,0,1,0
11,stimuli/tones/silence.wav,0.75,49,noResp,NA,G_3,stimuli/Baron6dB/070300.wav,stimuli/Hopper/030001.wav,stimuli/Eagle/060202.wav,NA,1,silence,silence,G_1,0,0,0,1,0
11,stimuli/tones/silence.wav,0.75,50,noResp,NA,W_2,stimuli/Baron6dB/070202.wav,stimuli/Charlie/000303.wav,stimuli/Arrow/040201.wav,NA,1,silence,silence,W_3,0,0,0,1,0
11,stimuli/tones/FlatIEC-33dB.wav,2,51,space,3.3619,B_4,stimuli/Baron6dB/070003.wav,stimuli/Charlie/000301.wav,stimuli/Laker/020003.wav,NA,1,-33dB,Flat,B_4,1,1,0,0,0
11,stimuli/tones/silence.wav,1.25,52,noResp,NA,B_2,stimuli/Baron6dB/070203.wav,stimuli/Eagle/060203.wav,stimuli/Laker/020001.wav,NA,1,silence,silence,W_4,0,0,0,1,0
11,stimuli/tones/FlatIEC-21dB.wav,2,53,space,2.6951,B_4,stimuli/Baron6dB/070101.wav,stimuli/Ringo/010201.wav,stimuli/Tiger/050003.wav,NA,1,-21dB,Flat,R_2,0,1,0,0,0
11,stimuli/tones/silence.wav,1.25,54,noResp,NA,W_2,stimuli/Baron6dB/070000.wav,stimuli/Charlie/000200.wav,stimuli/Hopper/030201.wav,NA,1,silence,silence,B_1,0,0,0,1,0
11,stimuli/tones/PercTri-27dB.wav,0.75,55,space,1.1254,G_2,stimuli/Baron6dB/070303.wav,stimuli/Eagle/060001.wav,stimuli/Ringo/010201.wav,NA,1,-27dB,PercTri,G_4,0,1,0,0,0
11,stimuli/tones/FlatIEC-33dB.wav,1.25,56,space,3.6089,G_2,stimuli/Baron6dB/070100.wav,stimuli/Laker/020102.wav,stimuli/Charlie/000301.wav,NA,1,-33dB,Flat,R_1,0,1,0,0,0
11,stimuli/tones/FlatIEC-24dB.wav,0.75,57,noResp,NA,R_1,stimuli/Baron6dB/070001.wav,stimuli/Arrow/040001.wav,stimuli/Hopper/030300.wav,NA,0,-24dB,Flat,B_2,0,0,1,0,0
11,stimuli/tones/silence.wav,0.75,58,noResp,NA,G_2,stimuli/Baron6dB/070002.wav,stimuli/Charlie/000302.wav,stimuli/Laker/020301.wav,NA,1,silence,silence,B_3,0,0,0,1,0
11,stimuli/tones/FlatIEC-27dB.wav,1.25,59,noResp,NA,W_1,stimuli/Baron6dB/070200.wav,stimuli/Hopper/030203.wav,stimuli/Ringo/010200.wav,NA,0,-27dB,Flat,W_1,1,0,1,0,0
11,stimuli/tones/silence.wav,2,60,noResp,NA,R_3,stimuli/Baron6dB/070102.wav,stimuli/Arrow/040103.wav,stimuli/Hopper/030102.wav,NA,1,silence,silence,R_3,1,0,0,1,0
11,stimuli/tones/silence.wav,2,61,noResp,NA,G_3,stimuli/Baron6dB/070302.wav,stimuli/Tiger/050100.wav,stimuli/Charlie/000200.wav,NA,1,silence,silence,G_3,1,0,0,1,0
11,stimuli/tones/silence.wav,2,62,noResp,NA,G_3,stimuli/Baron6dB/070103.wav,stimuli/Arrow/040202.wav,stimuli/Arrow/040302.wav,NA,1,silence,silence,R_4,0,0,0,1,0
11,stimuli/tones/PercTri-27dB.wav,0.75,63,space,1.4001,W_3,stimuli/Baron6dB/070201.wav,stimuli/Hopper/030301.wav,stimuli/Ringo/010302.wav,NA,1,-27dB,PercTri,W_2,0,1,0,0,0
11,stimuli/tones/PercTri-21dB.wav,2,64,space,2.7103,W_3,stimuli/Baron6dB/070201.wav,stimuli/Hopper/030302.wav,stimuli/Ringo/010202.wav,NA,1,-21dB,PercTri,W_2,0,1,0,0,0
11,stimuli/tones/FlatIEC-18dB.wav,2,65,space,2.8629,B_4,stimuli/Baron6dB/070002.wav,stimuli/Tiger/050203.wav,stimuli/Laker/020003.wav,NA,1,-18dB,Flat,B_3,0,1,0,0,0
11,stimuli/tones/silence.wav,1.25,66,noResp,NA,B_2,stimuli/Baron6dB/070100.wav,stimuli/Ringo/010200.wav,stimuli/Arrow/040101.wav,NA,1,silence,silence,R_1,0,0,0,1,0
11,stimuli/tones/silence.wav,0.75,67,noResp,NA,R_3,stimuli/Baron6dB/070101.wav,stimuli/Charlie/000101.wav,stimuli/Charlie/000202.wav,NA,1,silence,silence,R_2,0,0,0,1,0
11,stimuli/tones/silence.wav,1.25,68,noResp,NA,G_4,stimuli/Baron6dB/070301.wav,stimuli/Eagle/060103.wav,stimuli/Charlie/000203.wav,NA,1,silence,silence,G_2,0,0,0,1,0
11,stimuli/tones/PercTri-30dB.wav,2,69,space,2.6784,G_4,stimuli/Baron6dB/070103.wav,stimuli/Tiger/050202.wav,stimuli/Hopper/030103.wav,NA,1,-30dB,PercTri,R_4,0,1,0,0,0
11,stimuli/tones/PercTri-21dB.wav,0.75,70,space,1.2596,B_2,stimuli/Baron6dB/070001.wav,stimuli/Ringo/010302.wav,stimuli/Laker/020201.wav,NA,1,-21dB,PercTri,B_2,1,1,0,0,0
11,stimuli/tones/silence.wav,0.75,71,space,2.1308,B_2,stimuli/Baron6dB/070200.wav,stimuli/Ringo/010300.wav,stimuli/Charlie/000101.wav,NA,0,silence,silence,W_1,0,0,0,0,1
11,stimuli/tones/silence.wav,0.75,72,noResp,NA,W_3,stimuli/Baron6dB/070202.wav,stimuli/Eagle/060202.wav,stimuli/Hopper/030002.wav,NA,1,silence,silence,W_3,1,0,0,1,0
11,stimuli/tones/silence.wav,1.25,73,noResp,NA,R_2,stimuli/Baron6dB/070303.wav,stimuli/Hopper/030201.wav,stimuli/Arrow/040300.wav,NA,1,silence,silence,G_4,0,0,0,1,0
11,stimuli/tones/PercTri-33dB.wav,2,74,space,4.25,B_3,stimuli/Baron6dB/070300.wav,stimuli/Laker/020202.wav,stimuli/Arrow/040002.wav,NA,1,-33dB,PercTri,G_1,0,1,0,0,0
11,stimuli/tones/PercTri-27dB.wav,1.25,75,noResp,NA,G_4,stimuli/Baron6dB/070102.wav,stimuli/Tiger/050200.wav,stimuli/Ringo/010303.wav,NA,0,-27dB,PercTri,R_3,0,0,1,0,0
11,stimuli/tones/silence.wav,1.25,76,noResp,NA,W_4,stimuli/Baron6dB/070003.wav,stimuli/Tiger/050002.wav,stimuli/Ringo/010203.wav,NA,1,silence,silence,B_4,0,0,0,1,0
11,stimuli/tones/FlatIEC-21dB.wav,1.25,77,space,2.4101,B_1,stimuli/Baron6dB/070302.wav,stimuli/Hopper/030101.wav,stimuli/Laker/020000.wav,NA,1,-21dB,Flat,G_3,0,1,0,0,0
11,stimuli/tones/FlatIEC-27dB.wav,1.25,78,space,2.1758,G_3,stimuli/Baron6dB/070000.wav,stimuli/Laker/020001.wav,stimuli/Laker/020202.wav,NA,1,-27dB,Flat,B_1,0,1,0,0,0
11,stimuli/tones/FlatIEC-33dB.wav,1.25,79,noResp,NA,B_4,stimuli/Baron6dB/070203.wav,stimuli/Tiger/050103.wav,stimuli/Laker/020103.wav,NA,0,-33dB,Flat,W_4,0,0,1,0,0
11,stimuli/tones/silence.wav,1.25,80,noResp,NA,G_2,stimuli/Baron6dB/070202.wav,stimuli/Arrow/040002.wav,stimuli/Eagle/060301.wav,NA,1,silence,silence,W_3,0,0,0,1,0
11,stimuli/tones/silence.wav,2,81,noResp,NA,R_3,stimuli/Baron6dB/070301.wav,stimuli/Laker/020101.wav,stimuli/Tiger/050202.wav,NA,1,silence,silence,G_2,0,0,0,1,0
11,stimuli/tones/PercTri-33dB.wav,1.25,82,space,1.8528,B_2,stimuli/Baron6dB/070001.wav,stimuli/Laker/020002.wav,stimuli/Arrow/040001.wav,NA,1,-33dB,PercTri,B_2,1,1,0,0,0
11,stimuli/tones/FlatIEC-21dB.wav,1.25,83,space,2.8943,G_4,stimuli/Baron6dB/070300.wav,stimuli/Hopper/030202.wav,stimuli/Hopper/030203.wav,NA,1,-21dB,Flat,G_1,0,1,0,0,0
11,stimuli/tones/silence.wav,0.75,84,noResp,NA,R_4,stimuli/Baron6dB/070102.wav,stimuli/Laker/020001.wav,stimuli/Tiger/050203.wav,NA,1,silence,silence,R_3,0,0,0,1,0
11,stimuli/tones/silence.wav,1.25,85,noResp,NA,R_3,stimuli/Baron6dB/070103.wav,stimuli/Eagle/060303.wav,stimuli/Hopper/030302.wav,NA,1,silence,silence,R_4,0,0,0,1,0
11,stimuli/tones/FlatIEC-33dB.wav,0.75,86,noResp,NA,W_2,stimuli/Baron6dB/070201.wav,stimuli/Laker/020103.wav,stimuli/Ringo/010001.wav,NA,0,-33dB,Flat,W_2,1,0,1,0,0
11,stimuli/tones/silence.wav,0.75,87,noResp,NA,B_1,stimuli/Baron6dB/070000.wav,stimuli/Tiger/050101.wav,stimuli/Hopper/030003.wav,NA,1,silence,silence,B_1,1,0,0,1,0
11,stimuli/tones/FlatIEC-30dB.wav,1.25,88,space,2.9197,G_2,stimuli/Baron6dB/070302.wav,stimuli/Charlie/000102.wav,stimuli/Tiger/050200.wav,NA,1,-30dB,Flat,G_3,0,1,0,0,0
11,stimuli/tones/silence.wav,1.25,89,noResp,NA,B_3,stimuli/Baron6dB/070003.wav,stimuli/Laker/020000.wav,stimuli/Laker/020002.wav,NA,1,silence,silence,B_4,0,0,0,1,0
11,stimuli/tones/silence.wav,2,90,noResp,NA,B_4,stimuli/Baron6dB/070200.wav,stimuli/Charlie/000201.wav,stimuli/Arrow/040103.wav,NA,1,silence,silence,W_1,0,0,0,1,0
11,stimuli/tones/silence.wav,1.25,91,noResp,NA,G_4,stimuli/Baron6dB/070203.wav,stimuli/Ringo/010100.wav,stimuli/Hopper/030000.wav,NA,1,silence,silence,W_4,0,0,0,1,0
11,stimuli/tones/FlatIEC-18dB.wav,0.75,92,noResp,NA,W_1,stimuli/Baron6dB/070100.wav,stimuli/Eagle/060100.wav,stimuli/Eagle/060002.wav,NA,0,-18dB,Flat,R_1,0,0,1,0,0
11,stimuli/tones/silence.wav,0.75,93,noResp,NA,G_2,stimuli/Baron6dB/070303.wav,stimuli/Eagle/060101.wav,stimuli/Tiger/050101.wav,NA,1,silence,silence,G_4,0,0,0,1,0
11,stimuli/tones/FlatIEC-18dB.wav,0.75,94,space,1.3543,B_4,stimuli/Baron6dB/070002.wav,stimuli/Hopper/030002.wav,stimuli/Eagle/060303.wav,NA,1,-18dB,Flat,B_3,0,1,0,0,0
11,stimuli/tones/silence.wav,1.25,95,noResp,NA,W_2,stimuli/Baron6dB/070101.wav,stimuli/Ringo/010202.wav,stimuli/Laker/020101.wav,NA,1,silence,silence,R_2,0,0,0,1,0
11,stimuli/tones/silence.wav,1.25,96,noResp,NA,W_4,stimuli/Baron6dB/070203.wav,stimuli/Arrow/040102.wav,stimuli/Charlie/000201.wav,NA,1,silence,silence,W_4,1,0,0,1,0
11,stimuli/tones/silence.wav,2,97,noResp,NA,G_2,stimuli/Baron6dB/070301.wav,stimuli/Laker/020200.wav,stimuli/Charlie/000001.wav,NA,1,silence,silence,G_2,1,0,0,1,0
11,stimuli/tones/silence.wav,0.75,98,noResp,NA,B_4,stimuli/Baron6dB/070303.wav,stimuli/Laker/020201.wav,stimuli/Laker/020203.wav,NA,1,silence,silence,G_4,0,0,0,1,0
11,stimuli/tones/silence.wav,1.25,99,noResp,NA,W_2,stimuli/Baron6dB/070201.wav,stimuli/Eagle/060003.wav,stimuli/Tiger/050001.wav,NA,1,silence,silence,W_2,1,0,0,1,0
11,stimuli/tones/FlatIEC-21dB.wav,0.75,100,space,1.4983,R_3,stimuli/Baron6dB/070102.wav,stimuli/Tiger/050000.wav,stimuli/Eagle/060003.wav,NA,1,-21dB,Flat,R_3,1,1,0,0,0
11,stimuli/tones/silence.wav,1.25,101,noResp,NA,B_4,stimuli/Baron6dB/070003.wav,stimuli/Hopper/030200.wav,stimuli/Charlie/000102.wav,NA,1,silence,silence,B_4,1,0,0,1,0
11,stimuli/tones/FlatIEC-24dB.wav,2,102,noResp,NA,R_2,stimuli/Baron6dB/070101.wav,stimuli/Laker/020003.wav,stimuli/Eagle/060100.wav,NA,0,-24dB,Flat,R_2,1,0,1,0,0
11,stimuli/tones/PercTri-21dB.wav,2,103,space,2.7513,B_2,stimuli/Baron6dB/070001.wav,stimuli/Arrow/040200.wav,stimuli/Arrow/040301.wav,NA,1,-21dB,PercTri,B_2,1,1,0,0,0
11,stimuli/tones/silence.wav,0.75,104,space,2.4432,B_3,stimuli/Baron6dB/070002.wav,stimuli/Arrow/040302.wav,stimuli/Arrow/040200.wav,NA,0,silence,silence,B_3,1,0,0,0,1
11,stimuli/tones/FlatIEC-27dB.wav,2,105,space,3.0861,W_1,stimuli/Baron6dB/070202.wav,stimuli/Eagle/060300.wav,stimuli/Arrow/040100.wav,NA,1,-27dB,Flat,W_3,0,1,0,0,0
11,stimuli/tones/FlatIEC-27dB.wav,0.75,106,space,1.5224,R_4,stimuli/Baron6dB/070103.wav,stimuli/Ringo/010301.wav,stimuli/Laker/020300.wav,NA,1,-27dB,Flat,R_4,1,1,0,0,0
11,stimuli/tones/PercTri-21dB.wav,0.75,107,space,1.6164,B_3,stimuli/Baron6dB/070302.wav,stimuli/Laker/020303.wav,stimuli/Laker/020002.wav,NA,1,-21dB,PercTri,G_3,0,1,0,0,0
11,stimuli/tones/silence.wav,2,108,space,2.1618,B_1,stimuli/Baron6dB/070000.wav,stimuli/Arrow/040301.wav,stimuli/Hopper/030301.wav,NA,0,silence,silence,B_1,1,0,0,0,1
11,stimuli/tones/PercTri-24dB.wav,0.75,109,space,1.36,W_1,stimuli/Baron6dB/070200.wav,stimuli/Hopper/030102.wav,stimuli/Eagle/060203.wav,NA,1,-24dB,PercTri,W_1,1,1,0,0,0
11,stimuli/tones/FlatIEC-24dB.wav,0.75,110,space,0.1491,G_1,stimuli/Baron6dB/070300.wav,stimuli/Tiger/050102.wav,stimuli/Eagle/060302.wav,NA,1,-24dB,Flat,G_1,1,1,0,0,0
11,stimuli/tones/silence.wav,1.25,111,noResp,NA,R_1,stimuli/Baron6dB/070100.wav,stimuli/Eagle/060302.wav,stimuli/Eagle/060000.wav,NA,1,silence,silence,R_1,1,0,0,1,0
11,stimuli/tones/silence.wav,2,112,noResp,NA,R_1,stimuli/Baron6dB/070100.wav,stimuli/Arrow/040100.wav,stimuli/Eagle/060100.wav,NA,1,silence,silence,R_1,1,0,0,1,0
11,stimuli/tones/FlatIEC-33dB.wav,2,113,noResp,NA,B_2,stimuli/Baron6dB/070001.wav,stimuli/Laker/020003.wav,stimuli/Hopper/030200.wav,NA,0,-33dB,Flat,B_2,1,0,1,0,0
11,stimuli/tones/PercTri-30dB.wav,1.25,114,space,1.8433,B_2,stimuli/Baron6dB/070101.wav,stimuli/Charlie/000203.wav,stimuli/Eagle/060300.wav,NA,1,-30dB,PercTri,R_2,0,1,0,0,0
11,stimuli/tones/silence.wav,2,115,noResp,NA,G_4,stimuli/Baron6dB/070303.wav,stimuli/Laker/020303.wav,stimuli/Laker/020101.wav,NA,1,silence,silence,G_4,1,0,0,1,0
11,stimuli/tones/PercTri-33dB.wav,0.75,116,space,1.2274,W_4,stimuli/Baron6dB/070202.wav,stimuli/Laker/020103.wav,stimuli/Laker/020203.wav,NA,1,-33dB,PercTri,W_3,0,1,0,0,0
11,stimuli/tones/silence.wav,0.75,117,noResp,NA,G_2,stimuli/Baron6dB/070301.wav,stimuli/Laker/020302.wav,stimuli/Arrow/040101.wav,NA,1,silence,silence,G_2,1,0,0,1,0
11,stimuli/tones/silence.wav,2,118,noResp,NA,G_4,stimuli/Baron6dB/070302.wav,stimuli/Hopper/030103.wav,stimuli/Laker/020103.wav,NA,1,silence,silence,G_3,0,0,0,1,0
11,stimuli/tones/PercTri-24dB.wav,2,119,space,2.5813,R_3,stimuli/Baron6dB/070102.wav,stimuli/Charlie/000101.wav,stimuli/Hopper/030003.wav,NA,1,-24dB,PercTri,R_3,1,1,0,0,0
11,stimuli/tones/silence.wav,0.75,120,noResp,NA,G_1,stimuli/Baron6dB/070300.wav,stimuli/Ringo/010203.wav,stimuli/Arrow/040100.wav,NA,1,silence,silence,G_1,1,0,0,1,0
11,stimuli/tones/PercTri-30dB.wav,2,121,space,2.5151,B_4,stimuli/Baron6dB/070103.wav,stimuli/Laker/020101.wav,stimuli/Laker/020100.wav,NA,1,-30dB,PercTri,R_4,0,1,0,0,0
11,stimuli/tones/PercTri-21dB.wav,1.25,122,space,1.9508,W_2,stimuli/Baron6dB/070201.wav,stimuli/Eagle/060202.wav,stimuli/Charlie/000201.wav,NA,1,-21dB,PercTri,W_2,1,1,0,0,0
11,stimuli/tones/FlatIEC-24dB.wav,1.25,123,space,2.494,B_4,stimuli/Baron6dB/070002.wav,stimuli/Laker/020002.wav,stimuli/Laker/020001.wav,NA,1,-24dB,Flat,B_3,0,1,0,0,0
11,stimuli/tones/PercTri-33dB.wav,2,124,space,3.6264,W_1,stimuli/Baron6dB/070203.wav,stimuli/Tiger/050201.wav,stimuli/Laker/020302.wav,NA,1,-33dB,PercTri,W_4,0,1,0,0,0
11,stimuli/tones/silence.wav,0.75,125,noResp,NA,B_1,stimuli/Baron6dB/070000.wav,stimuli/Eagle/060003.wav,stimuli/Laker/020000.wav,NA,1,silence,silence,B_1,1,0,0,1,0
11,stimuli/tones/PercTri-24dB.wav,1.25,126,space,1.7949,B_4,stimuli/Baron6dB/070003.wav,stimuli/Laker/020202.wav,stimuli/Tiger/050103.wav,NA,1,-24dB,PercTri,B_4,1,1,0,0,0
11,stimuli/tones/FlatIEC-24dB.wav,2,127,noResp,NA,W_1,stimuli/Baron6dB/070200.wav,stimuli/Tiger/050003.wav,stimuli/Arrow/040103.wav,NA,0,-24dB,Flat,W_1,1,0,1,0,0
11,stimuli/tones/PercTri-18dB.wav,0.75,128,space,1.6643,B_3,stimuli/Baron6dB/070002.wav,stimuli/Laker/020102.wav,stimuli/Charlie/000003.wav,NA,1,-18dB,PercTri,B_3,1,1,0,0,0
11,stimuli/tones/FlatIEC-27dB.wav,2,129,space,2.788,B_2,stimuli/Baron6dB/070001.wav,stimuli/Charlie/000303.wav,stimuli/Charlie/000102.wav,NA,1,-27dB,Flat,B_2,1,1,0,0,0
11,stimuli/tones/PercTri-33dB.wav,1.25,130,space,1.767,G_2,stimuli/Baron6dB/070102.wav,stimuli/Ringo/010002.wav,stimuli/Ringo/010201.wav,NA,1,-33dB,PercTri,R_3,0,1,0,0,0
11,stimuli/tones/silence.wav,0.75,131,noResp,NA,W_2,stimuli/Baron6dB/070201.wav,stimuli/Charlie/000100.wav,stimuli/Hopper/030000.wav,NA,1,silence,silence,W_2,1,0,0,1,0
11,stimuli/tones/silence.wav,1.25,132,noResp,NA,R_3,stimuli/Baron6dB/070302.wav,stimuli/Ringo/010003.wav,stimuli/Eagle/060201.wav,NA,1,silence,silence,G_3,0,0,0,1,0
11,stimuli/tones/PercTri-18dB.wav,1.25,133,space,1.7542,G_1,stimuli/Baron6dB/070103.wav,stimuli/Ringo/010303.wav,stimuli/Eagle/060200.wav,NA,1,-18dB,PercTri,R_4,0,1,0,0,0
11,stimuli/tones/silence.wav,2,134,noResp,NA,R_1,stimuli/Baron6dB/070100.wav,stimuli/Arrow/040303.wav,stimuli/Ringo/010102.wav,NA,1,silence,silence,R_1,1,0,0,1,0
11,stimuli/tones/silence.wav,1.25,135,noResp,NA,W_1,stimuli/Baron6dB/070200.wav,stimuli/Hopper/030303.wav,stimuli/Hopper/030002.wav,NA,1,silence,silence,W_1,1,0,0,1,0
11,stimuli/tones/FlatIEC-33dB.wav,1.25,136,space,2.7374,R_2,stimuli/Baron6dB/070101.wav,stimuli/Eagle/060002.wav,stimuli/Arrow/040001.wav,NA,1,-33dB,Flat,R_2,1,1,0,0,0
11,stimuli/tones/silence.wav,2,137,noResp,NA,W_4,stimuli/Baron6dB/070203.wav,stimuli/Hopper/030302.wav,stimuli/Ringo/010100.wav,NA,1,silence,silence,W_4,1,0,0,1,0
11,stimuli/tones/FlatIEC-30dB.wav,2,138,space,2.6831,W_2,stimuli/Baron6dB/070300.wav,stimuli/Charlie/000001.wav,stimuli/Tiger/050201.wav,NA,1,-30dB,Flat,G_1,0,1,0,0,0
11,stimuli/tones/PercTri-18dB.wav,2,139,space,2.4517,B_1,stimuli/Baron6dB/070000.wav,stimuli/Ringo/010301.wav,stimuli/Eagle/060103.wav,NA,1,-18dB,PercTri,B_1,1,1,0,0,0
11,stimuli/tones/FlatIEC-18dB.wav,2,140,space,2.5814,G_2,stimuli/Baron6dB/070003.wav,stimuli/Eagle/060301.wav,stimuli/Eagle/060301.wav,NA,1,-18dB,Flat,B_4,0,1,0,0,0
11,stimuli/tones/PercTri-18dB.wav,0.75,141,space,1.2667,B_4,stimuli/Baron6dB/070303.wav,stimuli/Laker/020300.wav,stimuli/Charlie/000000.wav,NA,1,-18dB,PercTri,G_4,0,1,0,0,0
11,stimuli/tones/PercTri-18dB.wav,2,142,space,2.4984,W_3,stimuli/Baron6dB/070202.wav,stimuli/Hopper/030003.wav,stimuli/Ringo/010303.wav,NA,1,-18dB,PercTri,W_3,1,1,0,0,0
11,stimuli/tones/silence.wav,2,143,noResp,NA,G_2,stimuli/Baron6dB/070301.wav,stimuli/Eagle/060300.wav,stimuli/Hopper/030100.wav,NA,1,silence,silence,G_2,1,0,0,1,0
11,stimuli/tones/silence.wav,2,144,noResp,NA,G_3,stimuli/Baron6dB/070302.wav,stimuli/Hopper/030100.wav,stimuli/Laker/020001.wav,NA,1,silence,silence,G_3,1,0,0,1,0
11,stimuli/tones/silence.wav,1.25,145,noResp,NA,G_3,stimuli/Baron6dB/070200.wav,stimuli/Eagle/060102.wav,stimuli/Eagle/060102.wav,NA,1,silence,silence,W_1,0,0,0,1,0
11,stimuli/tones/PercTri-24dB.wav,0.75,146,space,1.228,G_2,stimuli/Baron6dB/070301.wav,stimuli/Arrow/040102.wav,stimuli/Eagle/060303.wav,NA,1,-24dB,PercTri,G_2,1,1,0,0,0
11,stimuli/tones/FlatIEC-21dB.wav,2,147,space,3.2162,R_2,stimuli/Baron6dB/070202.wav,stimuli/Arrow/040302.wav,stimuli/Arrow/040200.wav,NA,1,-21dB,Flat,W_3,0,1,0,0,0
11,stimuli/tones/FlatIEC-18dB.wav,1.25,148,space,2.3096,R_3,stimuli/Baron6dB/070103.wav,stimuli/Arrow/040201.wav,stimuli/Arrow/040302.wav,NA,1,-18dB,Flat,R_4,0,1,0,0,0
11,stimuli/tones/silence.wav,2,149,space,2.8492,B_2,stimuli/Baron6dB/070203.wav,stimuli/Tiger/050200.wav,stimuli/Charlie/000101.wav,NA,0,silence,silence,W_4,0,0,0,0,1
11,stimuli/tones/silence.wav,0.75,150,noResp,NA,B_2,stimuli/Baron6dB/070003.wav,stimuli/Charlie/000301.wav,stimuli/Charlie/000103.wav,NA,1,silence,silence,B_4,0,0,0,1,0
11,stimuli/tones/silence.wav,0.75,151,noResp,NA,G_2,stimuli/Baron6dB/070100.wav,stimuli/Laker/020203.wav,stimuli/Laker/020301.wav,NA,1,silence,silence,R_1,0,0,0,1,0
11,stimuli/tones/PercTri-24dB.wav,2,152,space,2.5525,B_2,stimuli/Baron6dB/070001.wav,stimuli/Hopper/030200.wav,stimuli/Tiger/050100.wav,NA,1,-24dB,PercTri,B_2,1,1,0,0,0
11,stimuli/tones/silence.wav,1.25,153,noResp,NA,R_2,stimuli/Baron6dB/070300.wav,stimuli/Arrow/040000.wav,stimuli/Hopper/030101.wav,NA,1,silence,silence,G_1,0,0,0,1,0
11,stimuli/tones/silence.wav,2,154,noResp,NA,W_3,stimuli/Baron6dB/070102.wav,stimuli/Tiger/050001.wav,stimuli/Ringo/010203.wav,NA,1,silence,silence,R_3,0,0,0,1,0
11,stimuli/tones/PercTri-33dB.wav,1.25,155,space,1.8152,B_2,stimuli/Baron6dB/070101.wav,stimuli/Laker/020003.wav,stimuli/Ringo/010001.wav,NA,1,-33dB,PercTri,R_2,0,1,0,0,0
11,stimuli/tones/PercTri-18dB.wav,0.75,156,space,1.6152,G_4,stimuli/Baron6dB/070303.wav,stimuli/Arrow/040301.wav,stimuli/Eagle/060003.wav,NA,1,-18dB,PercTri,G_4,1,1,0,0,0
11,stimuli/tones/silence.wav,1.25,157,noResp,NA,B_3,stimuli/Baron6dB/070002.wav,stimuli/Ringo/010100.wav,stimuli/Hopper/030203.wav,NA,1,silence,silence,B_3,1,0,0,1,0
11,stimuli/tones/silence.wav,1.25,158,noResp,NA,W_2,stimuli/Baron6dB/070201.wav,stimuli/Eagle/060201.wav,stimuli/Hopper/030303.wav,NA,1,silence,silence,W_2,1,0,0,1,0
11,stimuli/tones/silence.wav,2,159,noResp,NA,B_1,stimuli/Baron6dB/070000.wav,stimuli/Laker/020200.wav,stimuli/Arrow/040303.wav,NA,1,silence,silence,B_1,1,0,0,1,0
11,stimuli/tones/silence.wav,1.25,160,noResp,NA,W_2,stimuli/Baron6dB/070201.wav,stimuli/Eagle/060303.wav,stimuli/Tiger/050003.wav,NA,1,silence,silence,W_2,1,0,0,1,0
11,stimuli/tones/silence.wav,0.75,161,noResp,NA,B_1,stimuli/Baron6dB/070000.wav,stimuli/Charlie/000002.wav,stimuli/Ringo/010003.wav,NA,1,silence,silence,B_1,1,0,0,1,0
11,stimuli/tones/PercTri-21dB.wav,2,162,space,2.5143,G_1,stimuli/Baron6dB/070300.wav,stimuli/Laker/020001.wav,stimuli/Charlie/000001.wav,NA,1,-21dB,PercTri,G_1,1,1,0,0,0
11,stimuli/tones/FlatIEC-18dB.wav,2,163,noResp,NA,B_2,stimuli/Baron6dB/070001.wav,stimuli/Tiger/050203.wav,stimuli/Ringo/010103.wav,NA,0,-18dB,Flat,B_2,1,0,1,0,0
11,stimuli/tones/silence.wav,0.75,164,space,0.0334,W_3,stimuli/Baron6dB/070200.wav,stimuli/Tiger/050002.wav,stimuli/Hopper/030301.wav,NA,0,silence,silence,W_1,0,0,0,0,1
11,stimuli/tones/PercTri-27dB.wav,1.25,165,space,1.6932,B_2,stimuli/Baron6dB/070101.wav,stimuli/Arrow/040300.wav,stimuli/Eagle/060202.wav,NA,1,-27dB,PercTri,R_2,0,1,0,0,0
11,stimuli/tones/silence.wav,0.75,166,noResp,NA,W_4,stimuli/Baron6dB/070203.wav,stimuli/Charlie/000200.wav,stimuli/Laker/020200.wav,NA,1,silence,silence,W_4,1,0,0,1,0
11,stimuli/tones/silence.wav,0.75,167,space,2.227,G_4,stimuli/Baron6dB/070003.wav,stimuli/Tiger/050000.wav,stimuli/Eagle/060302.wav,NA,0,silence,silence,B_4,0,0,0,0,1
11,stimuli/tones/silence.wav,2,168,noResp,NA,R_1,stimuli/Baron6dB/070100.wav,stimuli/Charlie/000003.wav,stimuli/Hopper/030201.wav,NA,1,silence,silence,R_1,1,0,0,1,0
11,stimuli/tones/FlatIEC-24dB.wav,1.25,169,space,1.9266,W_4,stimuli/Baron6dB/070002.wav,stimuli/Eagle/060302.wav,stimuli/Charlie/000200.wav,NA,1,-24dB,Flat,B_3,0,1,0,0,0
