participant,tone,tone_onset,loop.thisN,key_resp_5.keys,key_resp_5.rt,mouseClick_5.clicked_name,thisA,thisB,thisC,typePrompt,cor,snr,env,CRMcorrect,CRMhit,hit,miss,cr,fa
1,stimuli/tones/PercTri-24dB.wav,1.25,0,space,2.4889,W_2,stimuli/Baron6dB/070201.wav,stimuli/Tiger/050203.wav,stimuli/Eagle/060102.wav,NA,1,-24dB,PercTri,W_2,1,1,0,0,0
1,stimuli/tones/FlatIEC-24dB.wav,2,1,space,2.6573,B_1,stimuli/Baron6dB/070000.wav,stimuli/Hopper/030303.wav,stimuli/Arrow/040201.wav,NA,1,-24dB,Flat,B_1,1,1,0,0,0
1,stimuli/tones/silence.wav,2,2,noResp,NA,B_2,stimuli/Baron6dB/070001.wav,stimuli/Ringo/010000.wav,stimuli/Ringo/010303.wav,NA,1,silence,silence,B_2,1,0,0,1,0
1,stimuli/tones/PercTri-24dB.wav,1.25,3,space,1.815,G_2,stimuli/Baron6dB/070301.wav,stimuli/Arrow/040102.wav,stimuli/Ringo/010103.wav,NA,1,-24dB,PercTri,G_2,1,1,0,0,0
1,stimuli/tones/silence.wav,1.25,4,noResp,NA,G_1,stimuli/Baron6dB/070300.wav,stimuli/Ringo/010102.wav,stimuli/Ringo/010200.wav,NA,1,silence,silence,G_1,1,0,0,1,0
1,stimuli/tones/silence.wav,2,5,noResp,NA,R_2,stimuli/Baron6dB/070101.wav,stimuli/Eagle/060201.wav,stimuli/Laker/020301.wav,NA,1,silence,silence,R_2,1,0,0,1,0
1,stimuli/tones/FlatIEC-33dB.wav,1.25,6,noResp,NA,G_3,stimuli/Baron6dB/070302.wav,stimuli/Eagle/060003.wav,stimuli/Eagle/060002.wav,NA,0,-33dB,Flat,G_3,1,0,1,0,0
1,stimuli/tones/silence.wav,1.25,7,noResp,NA,B_3,stimuli/Baron6dB/070002.wav,stimuli/Tiger/050003.wav,stimuli/Charlie/000202.wav,NA,1,silence,silence,B_3,1,0,0,1,0
1,stimuli/tones/FlatIEC-24dB.wav,1.25,8,space,2.5796,W_3,stimuli/Baron6dB/070202.wav,stimuli/Charlie/000101.wav,stimuli/Laker/020003.wav,NA,1,-24dB,Flat,W_3,1,1,0,0,0
1,stimuli/tones/PercTri-30dB.wav,0.75,9,space,1.3897,W_4,stimuli/Baron6dB/070203.wav,stimuli/Hopper/030201.wav,stimuli/Eagle/060201.wav,NA,1,-30dB,PercTri,W_4,1,1,0,0,0
1,stimuli/tones/silence.wav,0.75,10,noResp,NA,R_3,stimuli/Baron6dB/070102.wav,stimuli/Eagle/060302.wav,stimuli/Arrow/040300.wav,NA,1,silence,silence,R_3,1,0,0,1,0
1,stimuli/tones/FlatIEC-30dB.wav,2,11,space,2.9104,G_4,stimuli/Baron6dB/070303.wav,stimuli/Eagle/060202.wav,stimuli/Eagle/060101.wav,NA,1,-30dB,Flat,G_4,1,1,0,0,0
1,stimuli/tones/silence.wav,2,12,noResp,NA,R_4,stimuli/Baron6dB/070103.wav,stimuli/Charlie/000001.wav,stimuli/Hopper/030202.wav,NA,1,silence,silence,R_4,1,0,0,1,0
1,stimuli/tones/FlatIEC-21dB.wav,0.75,13,space,1.6788,B_4,stimuli/Baron6dB/070003.wav,stimuli/Arrow/040203.wav,stimuli/Eagle/060000.wav,NA,1,-21dB,Flat,B_4,1,1,0,0,0
1,stimuli/tones/silence.wav,0.75,14,noResp,NA,W_1,stimuli/Baron6dB/070200.wav,stimuli/Ringo/010301.wav,stimuli/Hopper/030301.wav,NA,1,silence,silence,W_1,1,0,0,1,0
1,stimuli/tones/silence.wav,0.75,15,noResp,NA,B_1,stimuli/Baron6dB/070100.wav,stimuli/Tiger/050200.wav,stimuli/Laker/020000.wav,NA,1,silence,silence,R_1,0,0,0,1,0
1,stimuli/tones/silence.wav,2,16,noResp,NA,R_1,stimuli/Baron6dB/070100.wav,stimuli/Hopper/030203.wav,stimuli/Charlie/000300.wav,NA,1,silence,silence,R_1,1,0,0,1,0
1,stimuli/tones/silence.wav,2,17,noResp,NA,B_2,stimuli/Baron6dB/070001.wav,stimuli/Charlie/000003.wav,stimuli/Hopper/030203.wav,NA,1,silence,silence,B_2,1,0,0,1,0
1,stimuli/tones/silence.wav,1.25,18,noResp,NA,R_2,stimuli/Baron6dB/070101.wav,stimuli/Eagle/060001.wav,stimuli/Charlie/000302.wav,NA,1,silence,silence,R_2,1,0,0,1,0
1,stimuli/tones/FlatIEC-27dB.wav,0.75,19,space,1.6733,B_4,stimuli/Baron6dB/070003.wav,stimuli/Ringo/010201.wav,stimuli/Tiger/050103.wav,NA,1,-27dB,Flat,B_4,1,1,0,0,0
1,stimuli/tones/PercTri-30dB.wav,2,20,space,2.4944,G_1,stimuli/Baron6dB/070300.wav,stimuli/Tiger/050103.wav,stimuli/Hopper/030100.wav,NA,1,-30dB,PercTri,G_1,1,1,0,0,0
1,stimuli/tones/silence.wav,1.25,21,noResp,NA,G_2,stimuli/Baron6dB/070301.wav,stimuli/Charlie/000102.wav,stimuli/Charlie/000103.wav,NA,1,silence,silence,G_2,1,0,0,1,0
1,stimuli/tones/PercTri-24dB.wav,0.75,22,space,1.3751,G_4,stimuli/Baron6dB/070303.wav,stimuli/Charlie/000103.wav,stimuli/Hopper/030101.wav,NA,1,-24dB,PercTri,G_4,1,1,0,0,0
1,stimuli/tones/FlatIEC-33dB.wav,0.75,23,noResp,NA,B_3,stimuli/Baron6dB/070002.wav,stimuli/Arrow/040200.wav,stimuli/Charlie/000003.wav,NA,0,-33dB,Flat,B_3,1,0,1,0,0
1,stimuli/tones/FlatIEC-33dB.wav,1.25,24,space,2.6253,W_3,stimuli/Baron6dB/070202.wav,stimuli/Ringo/010203.wav,stimuli/Laker/020001.wav,NA,1,-33dB,Flat,W_3,1,1,0,0,0
1,stimuli/tones/FlatIEC-18dB.wav,1.25,25,space,2.2834,R_3,stimuli/Baron6dB/070102.wav,stimuli/Charlie/000202.wav,stimuli/Arrow/040001.wav,NA,1,-18dB,Flat,R_3,1,1,0,0,0
1,stimuli/tones/FlatIEC-18dB.wav,2,26,space,3.5779,W_4,stimuli/Baron6dB/070203.wav,stimuli/Tiger/050302.wav,stimuli/Charlie/000101.wav,NA,1,-18dB,Flat,W_4,1,1,0,0,0
1,stimuli/tones/FlatIEC-27dB.wav,2,27,space,3.3671,W_3,stimuli/Baron6dB/070302.wav,stimuli/Hopper/030100.wav,stimuli/Laker/020100.wav,NA,1,-27dB,Flat,G_3,0,1,0,0,0
1,stimuli/tones/FlatIEC-24dB.wav,0.75,28,noResp,NA,W_2,stimuli/Baron6dB/070201.wav,stimuli/Charlie/000203.wav,stimuli/Laker/020103.wav,NA,0,-24dB,Flat,W_2,1,0,1,0,0
1,stimuli/tones/FlatIEC-33dB.wav,2,29,space,2.5974,W_4,stimuli/Baron6dB/070103.wav,stimuli/Tiger/050000.wav,stimuli/Ringo/010301.wav,NA,1,-33dB,Flat,R_4,0,1,0,0,0
1,stimuli/tones/silence.wav,1.25,30,noResp,NA,B_1,stimuli/Baron6dB/070000.wav,stimuli/Ringo/010200.wav,stimuli/Laker/020101.wav,NA,1,silence,silence,B_1,1,0,0,1,0
1,stimuli/tones/silence.wav,0.75,31,space,1.6996,W_1,stimuli/Baron6dB/070200.wav,stimuli/Arrow/040001.wav,stimuli/Charlie/000102.wav,NA,0,silence,silence,W_1,1,0,0,0,1
1,stimuli/tones/FlatIEC-21dB.wav,1.25,32,space,1.8417,B_3,stimuli/Baron6dB/070002.wav,stimuli/Arrow/040202.wav,stimuli/Laker/020201.wav,NA,1,-21dB,Flat,B_3,1,1,0,0,0
1,stimuli/tones/FlatIEC-30dB.wav,2,33,space,2.668,G_2,stimuli/Baron6dB/070301.wav,stimuli/Hopper/030000.wav,stimuli/Charlie/000201.wav,NA,1,-30dB,Flat,G_2,1,1,0,0,0
1,stimuli/tones/FlatIEC-27dB.wav,1.25,34,noResp,NA,B_3,stimuli/Baron6dB/070303.wav,stimuli/Eagle/060300.wav,stimuli/Tiger/050302.wav,NA,0,-27dB,Flat,G_4,0,0,1,0,0
1,stimuli/tones/silence.wav,1.25,35,noResp,NA,W_1,stimuli/Baron6dB/070200.wav,stimuli/Eagle/060000.wav,stimuli/Arrow/040200.wav,NA,1,silence,silence,W_1,1,0,0,1,0
1,stimuli/tones/silence.wav,1.25,36,noResp,NA,R_4,stimuli/Baron6dB/070103.wav,stimuli/Laker/020100.wav,stimuli/Tiger/050003.wav,NA,1,silence,silence,R_4,1,0,0,1,0
1,stimuli/tones/PercTri-18dB.wav,1.25,37,space,2.3238,G_3,stimuli/Baron6dB/070302.wav,stimuli/Ringo/010300.wav,stimuli/Hopper/030102.wav,NA,1,-18dB,PercTri,G_3,1,1,0,0,0
1,stimuli/tones/FlatIEC-18dB.wav,0.75,38,space,2.2918,G_1,stimuli/Baron6dB/070300.wav,stimuli/Ringo/010202.wav,stimuli/Arrow/040000.wav,NA,1,-18dB,Flat,G_1,1,1,0,0,0
1,stimuli/tones/silence.wav,0.75,39,noResp,NA,G_4,stimuli/Baron6dB/070003.wav,stimuli/Charlie/000300.wav,stimuli/Charlie/000303.wav,NA,1,silence,silence,B_4,0,0,0,1,0
1,stimuli/tones/FlatIEC-24dB.wav,1.25,40,space,2.5027,B_1,stimuli/Baron6dB/070000.wav,stimuli/Eagle/060200.wav,stimuli/Arrow/040002.wav,NA,1,-24dB,Flat,B_1,1,1,0,0,0
1,stimuli/tones/silence.wav,2,41,noResp,NA,R_1,stimuli/Baron6dB/070100.wav,stimuli/Ringo/010303.wav,stimuli/Hopper/030200.wav,NA,1,silence,silence,R_1,1,0,0,1,0
1,stimuli/tones/FlatIEC-33dB.wav,2,42,noResp,NA,W_3,stimuli/Baron6dB/070202.wav,stimuli/Laker/020202.wav,stimuli/Arrow/040100.wav,NA,0,-33dB,Flat,W_3,1,0,1,0,0
1,stimuli/tones/FlatIEC-24dB.wav,2,43,space,0.073,R_3,stimuli/Baron6dB/070102.wav,stimuli/Hopper/030002.wav,stimuli/Hopper/030000.wav,NA,1,-24dB,Flat,R_3,1,1,0,0,0
1,stimuli/tones/silence.wav,0.75,44,space,2.6241,W_4,stimuli/Baron6dB/070203.wav,stimuli/Charlie/000303.wav,stimuli/Laker/020202.wav,NA,0,silence,silence,W_4,1,0,0,0,1
1,stimuli/tones/silence.wav,2,45,noResp,NA,W_2,stimuli/Baron6dB/070201.wav,stimuli/Eagle/060100.wav,stimuli/Charlie/000002.wav,NA,1,silence,silence,W_2,1,0,0,1,0
1,stimuli/tones/PercTri-24dB.wav,0.75,46,space,1.4477,R_2,stimuli/Baron6dB/070101.wav,stimuli/Ringo/010100.wav,stimuli/Ringo/010302.wav,NA,1,-24dB,PercTri,R_2,1,1,0,0,0
1,stimuli/tones/silence.wav,2,47,noResp,NA,B_2,stimuli/Baron6dB/070001.wav,stimuli/Eagle/060102.wav,stimuli/Eagle/060001.wav,NA,1,silence,silence,B_2,1,0,0,1,0
1,stimuli/tones/silence.wav,1.25,48,noResp,NA,W_3,stimuli/Baron6dB/070102.wav,stimuli/Laker/020303.wav,stimuli/Laker/020203.wav,NA,1,silence,silence,R_3,0,0,0,1,0
1,stimuli/tones/FlatIEC-27dB.wav,1.25,49,noResp,NA,G_2,stimuli/Baron6dB/070301.wav,stimuli/Arrow/040003.wav,stimuli/Eagle/060100.wav,NA,0,-27dB,Flat,G_2,1,0,1,0,0
1,stimuli/tones/silence.wav,0.75,50,noResp,NA,R_1,stimuli/Baron6dB/070100.wav,stimuli/Arrow/040300.wav,stimuli/Laker/020302.wav,NA,1,silence,silence,R_1,1,0,0,1,0
1,stimuli/tones/silence.wav,0.75,51,noResp,NA,G_4,stimuli/Baron6dB/070303.wav,stimuli/Ringo/010003.wav,stimuli/Hopper/030001.wav,NA,1,silence,silence,G_4,1,0,0,1,0
1,stimuli/tones/PercTri-18dB.wav,1.25,52,space,1.9173,R_4,stimuli/Baron6dB/070103.wav,stimuli/Tiger/050001.wav,stimuli/Tiger/050200.wav,NA,1,-18dB,PercTri,R_4,1,1,0,0,0
1,stimuli/tones/silence.wav,0.75,53,noResp,NA,W_2,stimuli/Baron6dB/070201.wav,stimuli/Eagle/060301.wav,stimuli/Eagle/060203.wav,NA,1,silence,silence,W_2,1,0,0,1,0
1,stimuli/tones/silence.wav,0.75,54,noResp,NA,B_2,stimuli/Baron6dB/070001.wav,stimuli/Hopper/030003.wav,stimuli/Hopper/030002.wav,NA,1,silence,silence,B_2,1,0,0,1,0
1,stimuli/tones/PercTri-33dB.wav,0.75,55,space,1.3722,R_2,stimuli/Baron6dB/070101.wav,stimuli/Tiger/050301.wav,stimuli/Laker/020002.wav,NA,1,-33dB,PercTri,R_2,1,1,0,0,0
1,stimuli/tones/silence.wav,2,56,noResp,NA,W_4,stimuli/Baron6dB/070203.wav,stimuli/Hopper/030101.wav,stimuli/Hopper/030300.wav,NA,1,silence,silence,W_4,1,0,0,1,0
1,stimuli/tones/silence.wav,0.75,57,noResp,NA,B_1,stimuli/Baron6dB/070000.wav,stimuli/Arrow/040002.wav,stimuli/Ringo/010002.wav,NA,1,silence,silence,B_1,1,0,0,1,0
1,stimuli/tones/FlatIEC-33dB.wav,1.25,58,noResp,NA,B_4,stimuli/Baron6dB/070003.wav,stimuli/Hopper/030300.wav,stimuli/Ringo/010300.wav,NA,0,-33dB,Flat,B_4,1,0,1,0,0
1,stimuli/tones/PercTri-21dB.wav,0.75,59,space,1.5798,W_1,stimuli/Baron6dB/070200.wav,stimuli/Laker/020101.wav,stimuli/Eagle/060202.wav,NA,1,-21dB,PercTri,W_1,1,1,0,0,0
1,stimuli/tones/PercTri-30dB.wav,1.25,60,space,2.2315,W_3,stimuli/Baron6dB/070202.wav,stimuli/Hopper/030301.wav,stimuli/Tiger/050000.wav,NA,1,-30dB,PercTri,W_3,1,1,0,0,0
1,stimuli/tones/silence.wav,2,61,noResp,NA,G_1,stimuli/Baron6dB/070300.wav,stimuli/Tiger/050102.wav,stimuli/Laker/020300.wav,NA,1,silence,silence,G_1,1,0,0,1,0
1,stimuli/tones/silence.wav,1.25,62,noResp,NA,G_3,stimuli/Baron6dB/070302.wav,stimuli/Hopper/030202.wav,stimuli/Ringo/010101.wav,NA,1,silence,silence,G_3,1,0,0,1,0
1,stimuli/tones/PercTri-33dB.wav,1.25,63,space,2.2516,B_3,stimuli/Baron6dB/070002.wav,stimuli/Charlie/000100.wav,stimuli/Charlie/000301.wav,NA,1,-33dB,PercTri,B_3,1,1,0,0,0
1,stimuli/tones/PercTri-18dB.wav,2,64,noResp,NA,G_1,stimuli/Baron6dB/070300.wav,stimuli/Charlie/000302.wav,stimuli/Eagle/060200.wav,NA,0,-18dB,PercTri,G_1,1,0,1,0,0
1,stimuli/tones/PercTri-18dB.wav,0.75,65,space,0.1001,B_1,stimuli/Baron6dB/070000.wav,stimuli/Ringo/010001.wav,stimuli/Tiger/050101.wav,NA,1,-18dB,PercTri,B_1,1,1,0,0,0
1,stimuli/tones/silence.wav,2,66,noResp,NA,W_3,stimuli/Baron6dB/070202.wav,stimuli/Tiger/050100.wav,stimuli/Charlie/000100.wav,NA,1,silence,silence,W_3,1,0,0,1,0
1,stimuli/tones/silence.wav,1.25,67,noResp,NA,R_2,stimuli/Baron6dB/070101.wav,stimuli/Arrow/040100.wav,stimuli/Arrow/040302.wav,NA,1,silence,silence,R_2,1,0,0,1,0
1,stimuli/tones/PercTri-27dB.wav,0.75,68,space,1.2973,B_4,stimuli/Baron6dB/070003.wav,stimuli/Laker/020102.wav,stimuli/Tiger/050100.wav,NA,1,-27dB,PercTri,B_4,1,1,0,0,0
1,stimuli/tones/silence.wav,0.75,69,noResp,NA,B_3,stimuli/Baron6dB/070002.wav,stimuli/Arrow/040301.wav,stimuli/Arrow/040102.wav,NA,1,silence,silence,B_3,1,0,0,1,0
1,stimuli/tones/silence.wav,2,70,noResp,NA,R_4,stimuli/Baron6dB/070103.wav,stimuli/Eagle/060101.wav,stimuli/Tiger/050203.wav,NA,1,silence,silence,R_4,1,0,0,1,0
1,stimuli/tones/FlatIEC-33dB.wav,2,71,noResp,NA,R_3,stimuli/Baron6dB/070102.wav,stimuli/Laker/020301.wav,stimuli/Ringo/010000.wav,NA,0,-33dB,Flat,R_3,1,0,1,0,0
1,stimuli/tones/silence.wav,0.75,72,space,0.3036,W_3,stimuli/Baron6dB/070302.wav,stimuli/Eagle/060103.wav,stimuli/Tiger/050001.wav,NA,0,silence,silence,G_3,0,0,0,0,1
1,stimuli/tones/FlatIEC-27dB.wav,2,73,space,2.599,B_2,stimuli/Baron6dB/070001.wav,stimuli/Laker/020201.wav,stimuli/Ringo/010203.wav,NA,1,-27dB,Flat,B_2,1,1,0,0,0
1,stimuli/tones/PercTri-33dB.wav,1.25,74,space,2.5324,W_1,stimuli/Baron6dB/070200.wav,stimuli/Eagle/060002.wav,stimuli/Hopper/030003.wav,NA,1,-33dB,PercTri,W_1,1,1,0,0,0
1,stimuli/tones/silence.wav,1.25,75,noResp,NA,G_4,stimuli/Baron6dB/070303.wav,stimuli/Laker/020302.wav,stimuli/Arrow/040203.wav,NA,1,silence,silence,G_4,1,0,0,1,0
1,stimuli/tones/FlatIEC-30dB.wav,1.25,76,space,2.63,R_1,stimuli/Baron6dB/070100.wav,stimuli/Ringo/010002.wav,stimuli/Hopper/030303.wav,NA,1,-30dB,Flat,R_1,1,1,0,0,0
1,stimuli/tones/silence.wav,0.75,77,noResp,NA,G_2,stimuli/Baron6dB/070301.wav,stimuli/Ringo/010302.wav,stimuli/Arrow/040301.wav,NA,1,silence,silence,G_2,1,0,0,1,0
1,stimuli/tones/silence.wav,2,78,noResp,NA,W_2,stimuli/Baron6dB/070201.wav,stimuli/Arrow/040303.wav,stimuli/Tiger/050201.wav,NA,1,silence,silence,W_2,1,0,0,1,0
1,stimuli/tones/silence.wav,1.25,79,noResp,NA,W_4,stimuli/Baron6dB/070203.wav,stimuli/Ringo/010101.wav,stimuli/Tiger/050102.wav,NA,1,silence,silence,W_4,1,0,0,1,0
1,stimuli/tones/PercTri-18dB.wav,2,80,space,2.4823,G_4,stimuli/Baron6dB/070303.wav,stimuli/Arrow/040000.wav,stimuli/Charlie/000200.wav,NA,1,-18dB,PercTri,G_4,1,1,0,0,0
1,stimuli/tones/silence.wav,0.75,81,noResp,NA,R_1,stimuli/Baron6dB/070100.wav,stimuli/Eagle/060203.wav,stimuli/Tiger/050300.wav,NA,1,silence,silence,R_1,1,0,0,1,0
1,stimuli/tones/silence.wav,1.25,82,noResp,NA,B_2,stimuli/Baron6dB/070001.wav,stimuli/Laker/020300.wav,stimuli/Eagle/060103.wav,NA,1,silence,silence,B_2,1,0,0,1,0
1,stimuli/tones/PercTri-33dB.wav,2,83,noResp,NA,W_1,stimuli/Baron6dB/070200.wav,stimuli/Laker/020001.wav,stimuli/Tiger/050303.wav,NA,0,-33dB,PercTri,W_1,1,0,1,0,0
1,stimuli/tones/FlatIEC-18dB.wav,0.75,84,space,3e-4,B_3,stimuli/Baron6dB/070002.wav,stimuli/Hopper/030200.wav,stimuli/Laker/020303.wav,NA,1,-18dB,Flat,B_3,1,1,0,0,0
1,stimuli/tones/FlatIEC-30dB.wav,0.75,85,noResp,NA,B_1,stimuli/Baron6dB/070000.wav,stimuli/Ringo/010103.wav,stimuli/Ringo/010100.wav,NA,0,-30dB,Flat,B_1,1,0,1,0,0
1,stimuli/tones/FlatIEC-18dB.wav,2,86,space,3.0107,W_4,stimuli/Baron6dB/070103.wav,stimuli/Tiger/050202.wav,stimuli/Charlie/000001.wav,NA,1,-18dB,Flat,R_4,0,1,0,0,0
1,stimuli/tones/PercTri-24dB.wav,2,87,space,3.0124,W_1,stimuli/Baron6dB/070300.wav,stimuli/Laker/020200.wav,stimuli/Laker/020200.wav,NA,1,-24dB,PercTri,G_1,0,1,0,0,0
1,stimuli/tones/FlatIEC-21dB.wav,2,88,space,2.8436,B_4,stimuli/Baron6dB/070003.wav,stimuli/Arrow/040103.wav,stimuli/Ringo/010202.wav,NA,1,-21dB,Flat,B_4,1,1,0,0,0
1,stimuli/tones/FlatIEC-24dB.wav,1.25,89,space,2.2961,W_2,stimuli/Baron6dB/070201.wav,stimuli/Tiger/050002.wav,stimuli/Eagle/060300.wav,NA,1,-24dB,Flat,W_2,1,1,0,0,0
1,stimuli/tones/FlatIEC-30dB.wav,1.25,90,noResp,NA,R_2,stimuli/Baron6dB/070101.wav,stimuli/Laker/020003.wav,stimuli/Eagle/060003.wav,NA,0,-30dB,Flat,R_2,1,0,1,0,0
1,stimuli/tones/silence.wav,2,91,noResp,NA,G_2,stimuli/Baron6dB/070301.wav,stimuli/Charlie/000201.wav,stimuli/Arrow/040003.wav,NA,1,silence,silence,G_2,1,0,0,1,0
1,stimuli/tones/silence.wav,2,92,noResp,NA,R_3,stimuli/Baron6dB/070102.wav,stimuli/Hopper/030001.wav,stimuli/Tiger/050002.wav,NA,1,silence,silence,R_3,1,0,0,1,0
1,stimuli/tones/silence.wav,1.25,93,noResp,NA,G_3,stimuli/Baron6dB/070302.wav,stimuli/Arrow/040302.wav,stimuli/Hopper/030201.wav,NA,1,silence,silence,G_3,1,0,0,1,0
1,stimuli/tones/PercTri-21dB.wav,1.25,94,space,2.0516,W_3,stimuli/Baron6dB/070202.wav,stimuli/Tiger/050201.wav,stimuli/Charlie/000000.wav,NA,1,-21dB,PercTri,W_3,1,1,0,0,0
1,stimuli/tones/FlatIEC-24dB.wav,0.75,95,space,1.4408,W_4,stimuli/Baron6dB/070203.wav,stimuli/Charlie/000301.wav,stimuli/Arrow/040303.wav,NA,1,-24dB,Flat,W_4,1,1,0,0,0
1,stimuli/tones/silence.wav,2,96,noResp,NA,B_3,stimuli/Baron6dB/070002.wav,stimuli/Laker/020000.wav,stimuli/Ringo/010001.wav,NA,1,silence,silence,B_3,1,0,0,1,0
1,stimuli/tones/silence.wav,1.25,97,noResp,NA,W_4,stimuli/Baron6dB/070203.wav,stimuli/Hopper/030302.wav,stimuli/Arrow/040103.wav,NA,1,silence,silence,W_4,1,0,0,1,0
1,stimuli/tones/PercTri-27dB.wav,0.75,98,space,1.354,W_2,stimuli/Baron6dB/070201.wav,stimuli/Laker/020103.wav,stimuli/Eagle/060302.wav,NA,1,-27dB,PercTri,W_2,1,1,0,0,0
1,stimuli/tones/silence.wav,1.25,99,noResp,NA,W_1,stimuli/Baron6dB/070100.wav,stimuli/Hopper/030103.wav,stimuli/Laker/020102.wav,NA,1,silence,silence,R_1,0,0,0,1,0
1,stimuli/tones/PercTri-24dB.wav,2,100,space,2.6183,B_1,stimuli/Baron6dB/070000.wav,stimuli/Tiger/050101.wav,stimuli/Tiger/050202.wav,NA,1,-24dB,PercTri,B_1,1,1,0,0,0
1,stimuli/tones/PercTri-27dB.wav,2,101,noResp,NA,W_3,stimuli/Baron6dB/070202.wav,stimuli/Arrow/040201.wav,stimuli/Ringo/010102.wav,NA,0,-27dB,PercTri,W_3,1,0,1,0,0
1,stimuli/tones/silence.wav,1.25,102,space,0.1077,W_1,stimuli/Baron6dB/070200.wav,stimuli/Tiger/050303.wav,stimuli/Charlie/000203.wav,NA,0,silence,silence,W_1,1,0,0,0,1
1,stimuli/tones/silence.wav,0.75,103,noResp,NA,R_2,stimuli/Baron6dB/070101.wav,stimuli/Laker/020002.wav,stimuli/Hopper/030302.wav,NA,1,silence,silence,R_2,1,0,0,1,0
1,stimuli/tones/silence.wav,2,104,noResp,NA,B_4,stimuli/Baron6dB/070003.wav,stimuli/Charlie/000200.wav,stimuli/Arrow/040101.wav,NA,1,silence,silence,B_4,1,0,0,1,0
1,stimuli/tones/silence.wav,0.75,105,noResp,NA,G_2,stimuli/Baron6dB/070301.wav,stimuli/Hopper/030102.wav,stimuli/Ringo/010003.wav,NA,1,silence,silence,G_2,1,0,0,1,0
1,stimuli/tones/silence.wav,0.75,106,noResp,NA,B_2,stimuli/Baron6dB/070001.wav,stimuli/Charlie/000000.wav,stimuli/Eagle/060303.wav,NA,1,silence,silence,B_2,1,0,0,1,0
1,stimuli/tones/PercTri-18dB.wav,0.75,107,space,1.2391,R_3,stimuli/Baron6dB/070102.wav,stimuli/Arrow/040101.wav,stimuli/Hopper/030103.wav,NA,1,-18dB,PercTri,R_3,1,1,0,0,0
1,stimuli/tones/silence.wav,1.25,108,noResp,NA,G_3,stimuli/Baron6dB/070302.wav,stimuli/Charlie/000002.wav,stimuli/Tiger/050301.wav,NA,1,silence,silence,G_3,1,0,0,1,0
1,stimuli/tones/silence.wav,1.25,109,noResp,NA,G_4,stimuli/Baron6dB/070303.wav,stimuli/Eagle/060303.wav,stimuli/Eagle/060301.wav,NA,1,silence,silence,G_4,1,0,0,1,0
1,stimuli/tones/PercTri-24dB.wav,1.25,110,space,2.0556,G_1,stimuli/Baron6dB/070300.wav,stimuli/Laker/020203.wav,stimuli/Arrow/040202.wav,NA,1,-24dB,PercTri,G_1,1,1,0,0,0
1,stimuli/tones/FlatIEC-21dB.wav,2,111,noResp,NA,G_4,stimuli/Baron6dB/070103.wav,stimuli/Tiger/050300.wav,stimuli/Ringo/010201.wav,NA,0,-21dB,Flat,R_4,0,0,1,0,0
1,stimuli/tones/silence.wav,2,112,space,0.2901,B_1,stimuli/Baron6dB/070000.wav,stimuli/Tiger/050002.wav,stimuli/Tiger/050201.wav,NA,0,silence,silence,B_1,1,0,0,0,1
1,stimuli/tones/FlatIEC-18dB.wav,0.75,113,space,1.5019,W_4,stimuli/Baron6dB/070203.wav,stimuli/Charlie/000000.wav,stimuli/Eagle/060302.wav,NA,1,-18dB,Flat,W_4,1,1,0,0,0
1,stimuli/tones/PercTri-21dB.wav,2,114,space,2.795,B_3,stimuli/Baron6dB/070002.wav,stimuli/Laker/020102.wav,stimuli/Arrow/040303.wav,NA,1,-21dB,PercTri,B_3,1,1,0,0,0
1,stimuli/tones/PercTri-30dB.wav,1.25,115,noResp,NA,R_3,stimuli/Baron6dB/070102.wav,stimuli/Laker/020101.wav,stimuli/Laker/020303.wav,NA,0,-30dB,PercTri,R_3,1,0,1,0,0
1,stimuli/tones/PercTri-30dB.wav,0.75,116,space,1.3838,R_4,stimuli/Baron6dB/070303.wav,stimuli/Arrow/040100.wav,stimuli/Hopper/030202.wav,NA,1,-30dB,PercTri,G_4,0,1,0,0,0
1,stimuli/tones/silence.wav,0.75,117,noResp,NA,W_2,stimuli/Baron6dB/070201.wav,stimuli/Tiger/050001.wav,stimuli/Tiger/050202.wav,NA,1,silence,silence,W_2,1,0,0,1,0
1,stimuli/tones/PercTri-33dB.wav,2,118,noResp,NA,W_3,stimuli/Baron6dB/070202.wav,stimuli/Charlie/000301.wav,stimuli/Ringo/010302.wav,NA,0,-33dB,PercTri,W_3,1,0,1,0,0
1,stimuli/tones/FlatIEC-24dB.wav,0.75,119,space,1.6023,R_4,stimuli/Baron6dB/070103.wav,stimuli/Ringo/010002.wav,stimuli/Hopper/030000.wav,NA,1,-24dB,Flat,R_4,1,1,0,0,0
1,stimuli/tones/silence.wav,0.75,120,noResp,NA,B_4,stimuli/Baron6dB/070003.wav,stimuli/Tiger/050301.wav,stimuli/Tiger/050103.wav,NA,1,silence,silence,B_4,1,0,0,1,0
1,stimuli/tones/silence.wav,1.25,121,noResp,NA,G_3,stimuli/Baron6dB/070302.wav,stimuli/Arrow/040201.wav,stimuli/Hopper/030303.wav,NA,1,silence,silence,G_3,1,0,0,1,0
1,stimuli/tones/silence.wav,2,122,noResp,NA,G_1,stimuli/Baron6dB/070300.wav,stimuli/Eagle/060300.wav,stimuli/Hopper/030201.wav,NA,1,silence,silence,G_1,1,0,0,1,0
1,stimuli/tones/FlatIEC-33dB.wav,0.75,123,space,1.3663,G_2,stimuli/Baron6dB/070301.wav,stimuli/Eagle/060200.wav,stimuli/Ringo/010101.wav,NA,1,-33dB,Flat,G_2,1,1,0,0,0
1,stimuli/tones/silence.wav,1.25,124,noResp,NA,W_1,stimuli/Baron6dB/070200.wav,stimuli/Arrow/040003.wav,stimuli/Tiger/050302.wav,NA,1,silence,silence,W_1,1,0,0,1,0
1,stimuli/tones/FlatIEC-30dB.wav,0.75,125,noResp,NA,G_1,stimuli/Baron6dB/070100.wav,stimuli/Eagle/060302.wav,stimuli/Tiger/050000.wav,NA,0,-30dB,Flat,R_1,0,0,1,0,0
1,stimuli/tones/silence.wav,1.25,126,noResp,NA,B_2,stimuli/Baron6dB/070001.wav,stimuli/Charlie/000302.wav,stimuli/Charlie/000301.wav,NA,1,silence,silence,B_2,1,0,0,1,0
1,stimuli/tones/silence.wav,0.75,127,noResp,NA,R_2,stimuli/Baron6dB/070101.wav,stimuli/Tiger/050303.wav,stimuli/Eagle/060003.wav,NA,1,silence,silence,R_2,1,0,0,1,0
1,stimuli/tones/silence.wav,2,128,noResp,NA,W_2,stimuli/Baron6dB/070201.wav,stimuli/Arrow/040303.wav,stimuli/Ringo/010303.wav,NA,1,silence,silence,W_2,1,0,0,1,0
1,stimuli/tones/PercTri-18dB.wav,2,129,space,2.6847,G_3,stimuli/Baron6dB/070302.wav,stimuli/Arrow/040001.wav,stimuli/Laker/020103.wav,NA,1,-18dB,PercTri,G_3,1,1,0,0,0
1,stimuli/tones/silence.wav,2,130,noResp,NA,B_3,stimuli/Baron6dB/070002.wav,stimuli/Laker/020202.wav,stimuli/Tiger/050101.wav,NA,1,silence,silence,B_3,1,0,0,1,0
1,stimuli/tones/silence.wav,1.25,131,noResp,NA,B_1,stimuli/Baron6dB/070000.wav,stimuli/Hopper/030302.wav,stimuli/Eagle/060001.wav,NA,1,silence,silence,B_1,1,0,0,1,0
1,stimuli/tones/PercTri-27dB.wav,1.25,132,space,2.206,W_1,stimuli/Baron6dB/070200.wav,stimuli/Eagle/060100.wav,stimuli/Arrow/040001.wav,NA,1,-27dB,PercTri,W_1,1,1,0,0,0
1,stimuli/tones/PercTri-21dB.wav,0.75,133,space,2.3388,W_3,stimuli/Baron6dB/070202.wav,stimuli/Hopper/030202.wav,stimuli/Ringo/010203.wav,NA,1,-21dB,PercTri,W_3,1,1,0,0,0
1,stimuli/tones/PercTri-24dB.wav,2,134,space,2.7215,R_2,stimuli/Baron6dB/070101.wav,stimuli/Ringo/010100.wav,stimuli/Charlie/000101.wav,NA,1,-24dB,PercTri,R_2,1,1,0,0,0
1,stimuli/tones/PercTri-33dB.wav,1.25,135,space,2.4279,G_1,stimuli/Baron6dB/070300.wav,stimuli/Hopper/030303.wav,stimuli/Arrow/040000.wav,NA,1,-33dB,PercTri,G_1,1,1,0,0,0
1,stimuli/tones/silence.wav,0.75,136,noResp,NA,G_4,stimuli/Baron6dB/070303.wav,stimuli/Ringo/010302.wav,stimuli/Ringo/010002.wav,NA,1,silence,silence,G_4,1,0,0,1,0
1,stimuli/tones/silence.wav,0.75,137,noResp,NA,G_4,stimuli/Baron6dB/070003.wav,stimuli/Hopper/030300.wav,stimuli/Arrow/040003.wav,NA,1,silence,silence,B_4,0,0,0,1,0
1,stimuli/tones/PercTri-21dB.wav,1.25,138,space,1.9496,R_3,stimuli/Baron6dB/070102.wav,stimuli/Hopper/030103.wav,stimuli/Ringo/010003.wav,NA,1,-21dB,PercTri,R_3,1,1,0,0,0
1,stimuli/tones/FlatIEC-21dB.wav,1.25,139,noResp,NA,G_2,stimuli/Baron6dB/070301.wav,stimuli/Hopper/030002.wav,stimuli/Ringo/010102.wav,NA,0,-21dB,Flat,G_2,1,0,1,0,0
1,stimuli/tones/silence.wav,0.75,140,space,0.6164,B_2,stimuli/Baron6dB/070001.wav,stimuli/Eagle/060103.wav,stimuli/Hopper/030002.wav,NA,0,silence,silence,B_2,1,0,0,0,1
1,stimuli/tones/silence.wav,0.75,141,noResp,NA,R_4,stimuli/Baron6dB/070103.wav,stimuli/Charlie/000303.wav,stimuli/Arrow/040102.wav,NA,1,silence,silence,R_4,1,0,0,1,0
1,stimuli/tones/FlatIEC-21dB.wav,0.75,142,space,1.5105,W_4,stimuli/Baron6dB/070203.wav,stimuli/Eagle/060201.wav,stimuli/Charlie/000203.wav,NA,1,-21dB,Flat,W_4,1,1,0,0,0
1,stimuli/tones/silence.wav,0.75,143,noResp,NA,R_1,stimuli/Baron6dB/070100.wav,stimuli/Ringo/010303.wav,stimuli/Laker/020200.wav,NA,1,silence,silence,R_1,1,0,0,1,0
1,stimuli/tones/silence.wav,1.25,144,noResp,NA,G_3,stimuli/Baron6dB/070303.wav,stimuli/Ringo/010202.wav,stimuli/Charlie/000303.wav,NA,1,silence,silence,G_4,0,0,0,1,0
1,stimuli/tones/silence.wav,2,145,noResp,NA,G_4,stimuli/Baron6dB/070302.wav,stimuli/Hopper/030200.wav,stimuli/Hopper/030200.wav,NA,1,silence,silence,G_3,0,0,0,1,0
1,stimuli/tones/silence.wav,1.25,146,noResp,NA,G_2,stimuli/Baron6dB/070301.wav,stimuli/Arrow/040102.wav,stimuli/Eagle/060201.wav,NA,1,silence,silence,G_2,1,0,0,1,0
1,stimuli/tones/silence.wav,0.75,147,noResp,NA,B_4,stimuli/Baron6dB/070003.wav,stimuli/Charlie/000101.wav,stimuli/Eagle/060301.wav,NA,1,silence,silence,B_4,1,0,0,1,0
1,stimuli/tones/silence.wav,0.75,148,noResp,NA,W_2,stimuli/Baron6dB/070201.wav,stimuli/Laker/020002.wav,stimuli/Charlie/000200.wav,NA,1,silence,silence,W_2,1,0,0,1,0
1,stimuli/tones/PercTri-27dB.wav,2,149,space,2.6203,B_2,stimuli/Baron6dB/070001.wav,stimuli/Eagle/060002.wav,stimuli/Eagle/060200.wav,NA,1,-27dB,PercTri,B_2,1,1,0,0,0
1,stimuli/tones/silence.wav,2,150,noResp,NA,R_1,stimuli/Baron6dB/070300.wav,stimuli/Ringo/010102.wav,stimuli/Eagle/060101.wav,NA,1,silence,silence,G_1,0,0,0,1,0
1,stimuli/tones/silence.wav,0.75,151,noResp,NA,W_1,stimuli/Baron6dB/070200.wav,stimuli/Laker/020003.wav,stimuli/Arrow/040200.wav,NA,1,silence,silence,W_1,1,0,0,1,0
1,stimuli/tones/PercTri-27dB.wav,1.25,152,space,2.5019,R_1,stimuli/Baron6dB/070100.wav,stimuli/Eagle/060301.wav,stimuli/Eagle/060203.wav,NA,1,-27dB,PercTri,R_1,1,1,0,0,0
1,stimuli/tones/silence.wav,1.25,153,space,2.6202,B_1,stimuli/Baron6dB/070000.wav,stimuli/Tiger/050302.wav,stimuli/Charlie/000100.wav,NA,0,silence,silence,B_1,1,0,0,0,1
1,stimuli/tones/FlatIEC-21dB.wav,1.25,154,space,2.4404,W_4,stimuli/Baron6dB/070203.wav,stimuli/Arrow/040302.wav,stimuli/Hopper/030101.wav,NA,1,-21dB,Flat,W_4,1,1,0,0,0
1,stimuli/tones/PercTri-24dB.wav,0.75,155,space,2.7541,R_2,stimuli/Baron6dB/070101.wav,stimuli/Laker/020001.wav,stimuli/Eagle/060300.wav,NA,1,-24dB,PercTri,R_2,1,1,0,0,0
1,stimuli/tones/FlatIEC-21dB.wav,0.75,156,space,1.3971,B_3,stimuli/Baron6dB/070002.wav,stimuli/Hopper/030301.wav,stimuli/Arrow/040103.wav,NA,1,-21dB,Flat,B_3,1,1,0,0,0
1,stimuli/tones/FlatIEC-18dB.wav,1.25,157,space,2.1726,R_4,stimuli/Baron6dB/070103.wav,stimuli/Tiger/050103.wav,stimuli/Arrow/040100.wav,NA,1,-18dB,Flat,R_4,1,1,0,0,0
1,stimuli/tones/silence.wav,2,158,noResp,NA,W_3,stimuli/Baron6dB/070202.wav,stimuli/Charlie/000202.wav,stimuli/Arrow/040101.wav,NA,1,silence,silence,W_3,1,0,0,1,0
1,stimuli/tones/FlatIEC-18dB.wav,1.25,159,space,2.8768,W_3,stimuli/Baron6dB/070102.wav,stimuli/Hopper/030001.wav,stimuli/Tiger/050303.wav,NA,1,-18dB,Flat,R_3,0,1,0,0,0
1,stimuli/tones/silence.wav,0.75,160,noResp,NA,R_4,stimuli/Baron6dB/070103.wav,stimuli/Eagle/060203.wav,stimuli/Laker/020101.wav,NA,1,silence,silence,R_4,1,0,0,1,0
1,stimuli/tones/PercTri-30dB.wav,0.75,161,space,1.4297,W_4,stimuli/Baron6dB/070203.wav,stimuli/Charlie/000001.wav,stimuli/Hopper/030300.wav,NA,1,-30dB,PercTri,W_4,1,1,0,0,0
1,stimuli/tones/silence.wav,2,162,noResp,NA,G_1,stimuli/Baron6dB/070300.wav,stimuli/Laker/020302.wav,stimuli/Ringo/010201.wav,NA,1,silence,silence,G_1,1,0,0,1,0
1,stimuli/tones/PercTri-18dB.wav,1.25,163,space,2.3702,R_2,stimuli/Baron6dB/070101.wav,stimuli/Tiger/050200.wav,stimuli/Laker/020203.wav,NA,1,-18dB,PercTri,R_2,1,1,0,0,0
1,stimuli/tones/silence.wav,1.25,164,noResp,NA,B_2,stimuli/Baron6dB/070001.wav,stimuli/Charlie/000201.wav,stimuli/Charlie/000103.wav,NA,1,silence,silence,B_2,1,0,0,1,0
1,stimuli/tones/PercTri-33dB.wav,2,165,space,2.6375,B_4,stimuli/Baron6dB/070003.wav,stimuli/Charlie/000002.wav,stimuli/Laker/020102.wav,NA,1,-33dB,PercTri,B_4,1,1,0,0,0
1,stimuli/tones/PercTri-30dB.wav,2,166,noResp,NA,W_2,stimuli/Baron6dB/070201.wav,stimuli/Laker/020200.wav,stimuli/Hopper/030103.wav,NA,0,-30dB,PercTri,W_2,1,0,1,0,0
1,stimuli/tones/PercTri-27dB.wav,2,167,space,2.9318,B_3,stimuli/Baron6dB/070302.wav,stimuli/Eagle/060003.wav,stimuli/Charlie/000300.wav,NA,1,-27dB,PercTri,G_3,0,1,0,0,0
1,stimuli/tones/silence.wav,1.25,168,noResp,NA,B_3,stimuli/Baron6dB/070002.wav,stimuli/Hopper/030101.wav,stimuli/Charlie/000102.wav,NA,1,silence,silence,B_3,1,0,0,1,0
1,stimuli/tones/FlatIEC-27dB.wav,0.75,169,noResp,NA,W_1,stimuli/Baron6dB/070200.wav,stimuli/Laker/020103.wav,stimuli/Arrow/040002.wav,NA,0,-27dB,Flat,W_1,1,0,1,0,0
1,stimuli/tones/PercTri-27dB.wav,0.75,170,space,1.4869,R_1,stimuli/Baron6dB/070100.wav,stimuli/Ringo/010200.wav,stimuli/Charlie/000202.wav,NA,1,-27dB,PercTri,R_1,1,1,0,0,0
1,stimuli/tones/silence.wav,1.25,171,noResp,NA,W_3,stimuli/Baron6dB/070202.wav,stimuli/Laker/020303.wav,stimuli/Arrow/040203.wav,NA,1,silence,silence,W_3,1,0,0,1,0
1,stimuli/tones/silence.wav,0.75,172,noResp,NA,G_4,stimuli/Baron6dB/070303.wav,stimuli/Ringo/010101.wav,stimuli/Hopper/030100.wav,NA,1,silence,silence,G_4,1,0,0,1,0
1,stimuli/tones/PercTri-21dB.wav,2,173,space,2.6199,G_2,stimuli/Baron6dB/070301.wav,stimuli/Laker/020201.wav,stimuli/Tiger/050002.wav,NA,1,-21dB,PercTri,G_2,1,1,0,0,0
1,stimuli/tones/FlatIEC-27dB.wav,0.75,174,noResp,NA,R_3,stimuli/Baron6dB/070102.wav,stimuli/Tiger/050201.wav,stimuli/Eagle/060303.wav,NA,0,-27dB,Flat,R_3,1,0,1,0,0
1,stimuli/tones/silence.wav,2,175,noResp,NA,B_1,stimuli/Baron6dB/070000.wav,stimuli/Eagle/060001.wav,stimuli/Tiger/050203.wav,NA,1,silence,silence,B_1,1,0,0,1,0
1,stimuli/tones/FlatIEC-33dB.wav,0.75,176,noResp,NA,G_3,stimuli/Baron6dB/070302.wav,stimuli/Eagle/060202.wav,stimuli/Charlie/000001.wav,NA,0,-33dB,Flat,G_3,1,0,1,0,0
1,stimuli/tones/silence.wav,0.75,177,noResp,NA,W_4,stimuli/Baron6dB/070203.wav,stimuli/Charlie/000200.wav,stimuli/Hopper/030203.wav,NA,1,silence,silence,W_4,1,0,0,1,0
1,stimuli/tones/PercTri-33dB.wav,0.75,178,space,1.3107,R_3,stimuli/Baron6dB/070102.wav,stimuli/Arrow/040101.wav,stimuli/Laker/020302.wav,NA,1,-33dB,PercTri,R_3,1,1,0,0,0
1,stimuli/tones/silence.wav,1.25,179,noResp,NA,R_4,stimuli/Baron6dB/070103.wav,stimuli/Ringo/010103.wav,stimuli/Arrow/040302.wav,NA,1,silence,silence,R_4,1,0,0,1,0
1,stimuli/tones/silence.wav,1.25,180,noResp,NA,W_2,stimuli/Baron6dB/070201.wav,stimuli/Hopper/030203.wav,stimuli/Laker/020003.wav,NA,1,silence,silence,W_2,1,0,0,1,0
1,stimuli/tones/PercTri-21dB.wav,1.25,181,space,1.8514,R_2,stimuli/Baron6dB/070101.wav,stimuli/Laker/020203.wav,stimuli/Ringo/010301.wav,NA,1,-21dB,PercTri,R_2,1,1,0,0,0
1,stimuli/tones/silence.wav,1.25,182,noResp,NA,G_1,stimuli/Baron6dB/070300.wav,stimuli/Eagle/060000.wav,stimuli/Tiger/050301.wav,NA,1,silence,silence,G_1,1,0,0,1,0
1,stimuli/tones/silence.wav,0.75,183,noResp,NA,B_2,stimuli/Baron6dB/070001.wav,stimuli/Charlie/000203.wav,stimuli/Laker/020001.wav,NA,1,silence,silence,B_2,1,0,0,1,0
1,stimuli/tones/PercTri-27dB.wav,1.25,184,space,2.206,B_3,stimuli/Baron6dB/070002.wav,stimuli/Charlie/000103.wav,stimuli/Charlie/000302.wav,NA,1,-27dB,PercTri,B_3,1,1,0,0,0
1,stimuli/tones/PercTri-30dB.wav,2,185,noResp,NA,B_4,stimuli/Baron6dB/070003.wav,stimuli/Tiger/050003.wav,stimuli/Hopper/030301.wav,NA,0,-30dB,PercTri,B_4,1,0,1,0,0
1,stimuli/tones/silence.wav,1.25,186,noResp,NA,R_1,stimuli/Baron6dB/070100.wav,stimuli/Tiger/050101.wav,stimuli/Ringo/010001.wav,NA,1,silence,silence,R_1,1,0,0,1,0
1,stimuli/tones/silence.wav,2,187,noResp,NA,W_1,stimuli/Baron6dB/070200.wav,stimuli/Eagle/060101.wav,stimuli/Laker/020201.wav,NA,1,silence,silence,W_1,1,0,0,1,0
1,stimuli/tones/silence.wav,1.25,188,noResp,NA,W_3,stimuli/Baron6dB/070202.wav,stimuli/Arrow/040300.wav,stimuli/Ringo/010200.wav,NA,1,silence,silence,W_3,1,0,0,1,0
1,stimuli/tones/silence.wav,2,189,noResp,NA,B_1,stimuli/Baron6dB/070000.wav,stimuli/Arrow/040301.wav,stimuli/Ringo/010100.wav,NA,1,silence,silence,B_1,1,0,0,1,0
1,stimuli/tones/PercTri-21dB.wav,0.75,190,space,1.3681,B_3,stimuli/Baron6dB/070303.wav,stimuli/Ringo/010301.wav,stimuli/Charlie/000003.wav,NA,1,-21dB,PercTri,G_4,0,1,0,0,0
1,stimuli/tones/silence.wav,1.25,191,noResp,NA,G_2,stimuli/Baron6dB/070301.wav,stimuli/Tiger/050102.wav,stimuli/Eagle/060103.wav,NA,1,silence,silence,G_2,1,0,0,1,0
1,stimuli/tones/PercTri-33dB.wav,0.75,192,space,1.3131,B_3,stimuli/Baron6dB/070002.wav,stimuli/Hopper/030100.wav,stimuli/Hopper/030302.wav,NA,1,-33dB,PercTri,B_3,1,1,0,0,0
1,stimuli/tones/silence.wav,2,193,noResp,NA,R_4,stimuli/Baron6dB/070103.wav,stimuli/Ringo/010003.wav,stimuli/Eagle/060202.wav,NA,1,silence,silence,R_4,1,0,0,1,0
1,stimuli/tones/PercTri-18dB.wav,0.75,194,space,1.3098,W_2,stimuli/Baron6dB/070201.wav,stimuli/Hopper/030201.wav,stimuli/Tiger/050102.wav,NA,1,-18dB,PercTri,W_2,1,1,0,0,0
1,stimuli/tones/silence.wav,2,195,noResp,NA,W_3,stimuli/Baron6dB/070102.wav,stimuli/Ringo/010203.wav,stimuli/Tiger/050003.wav,NA,1,silence,silence,R_3,0,0,0,1,0
1,stimuli/tones/silence.wav,2,196,noResp,NA,W_4,stimuli/Baron6dB/070203.wav,stimuli/Tiger/050000.wav,stimuli/Hopper/030003.wav,NA,1,silence,silence,W_4,1,0,0,1,0
1,stimuli/tones/silence.wav,2,197,noResp,NA,W_1,stimuli/Baron6dB/070200.wav,stimuli/Ringo/010001.wav,stimuli/Hopper/030001.wav,NA,1,silence,silence,W_1,1,0,0,1,0
1,stimuli/tones/FlatIEC-27dB.wav,2,198,noResp,NA,W_3,stimuli/Baron6dB/070100.wav,stimuli/Arrow/040000.wav,stimuli/Arrow/040202.wav,NA,0,-27dB,Flat,R_1,0,0,1,0,0
1,stimuli/tones/FlatIEC-21dB.wav,2,199,space,2.9438,B_2,stimuli/Baron6dB/070001.wav,stimuli/Laker/020300.wav,stimuli/Arrow/040300.wav,NA,1,-21dB,Flat,B_2,1,1,0,0,0
1,stimuli/tones/FlatIEC-24dB.wav,2,200,noResp,NA,G_3,stimuli/Baron6dB/070302.wav,stimuli/Tiger/050100.wav,stimuli/Laker/020300.wav,NA,0,-24dB,Flat,G_3,1,0,1,0,0
1,stimuli/tones/silence.wav,0.75,201,noResp,NA,W_3,stimuli/Baron6dB/070202.wav,stimuli/Eagle/060303.wav,stimuli/Ringo/010300.wav,NA,1,silence,silence,W_3,1,0,0,1,0
1,stimuli/tones/silence.wav,2,202,noResp,NA,R_2,stimuli/Baron6dB/070101.wav,stimuli/Charlie/000102.wav,stimuli/Eagle/060100.wav,NA,1,silence,silence,R_2,1,0,0,1,0
1,stimuli/tones/FlatIEC-18dB.wav,2,203,space,2.7682,G_4,stimuli/Baron6dB/070303.wav,stimuli/Tiger/050300.wav,stimuli/Arrow/040201.wav,NA,1,-18dB,Flat,G_4,1,1,0,0,0
1,stimuli/tones/silence.wav,1.25,204,noResp,NA,B_4,stimuli/Baron6dB/070003.wav,stimuli/Hopper/030102.wav,stimuli/Charlie/000201.wav,NA,1,silence,silence,B_4,1,0,0,1,0
1,stimuli/tones/silence.wav,2,205,noResp,NA,G_1,stimuli/Baron6dB/070300.wav,stimuli/Laker/020100.wav,stimuli/Ringo/010103.wav,NA,1,silence,silence,G_1,1,0,0,1,0
1,stimuli/tones/silence.wav,0.75,206,noResp,NA,G_2,stimuli/Baron6dB/070301.wav,stimuli/Laker/020301.wav,stimuli/Ringo/010000.wav,NA,1,silence,silence,G_2,1,0,0,1,0
1,stimuli/tones/silence.wav,2,207,noResp,NA,B_1,stimuli/Baron6dB/070000.wav,stimuli/Charlie/000003.wav,stimuli/Laker/020202.wav,NA,1,silence,silence,B_1,1,0,0,1,0
1,stimuli/tones/FlatIEC-30dB.wav,0.75,208,noResp,NA,B_3,stimuli/Baron6dB/070002.wav,stimuli/Arrow/040202.wav,stimuli/Charlie/000000.wav,NA,0,-30dB,Flat,B_3,1,0,1,0,0
1,stimuli/tones/FlatIEC-30dB.wav,2,209,noResp,NA,B_1,stimuli/Baron6dB/070000.wav,stimuli/Tiger/050203.wav,stimuli/Laker/020301.wav,NA,0,-30dB,Flat,B_1,1,0,1,0,0
1,stimuli/tones/FlatIEC-30dB.wav,1.25,210,space,0.1436,W_2,stimuli/Baron6dB/070201.wav,stimuli/Arrow/040103.wav,stimuli/Tiger/050100.wav,NA,1,-30dB,Flat,W_2,1,1,0,0,0
1,stimuli/tones/silence.wav,2,211,space,2.6053,R_4,stimuli/Baron6dB/070103.wav,stimuli/Ringo/010201.wav,stimuli/Arrow/040301.wav,NA,0,silence,silence,R_4,1,0,0,0,1
1,stimuli/tones/PercTri-30dB.wav,1.25,212,noResp,NA,B_4,stimuli/Baron6dB/070003.wav,stimuli/Arrow/040002.wav,stimuli/Eagle/060102.wav,NA,0,-30dB,PercTri,B_4,1,0,1,0,0
1,stimuli/tones/FlatIEC-27dB.wav,1.25,213,space,0.0835,G_3,stimuli/Baron6dB/070302.wav,stimuli/Arrow/040203.wav,stimuli/Eagle/060000.wav,NA,1,-27dB,Flat,G_3,1,1,0,0,0
1,stimuli/tones/silence.wav,0.75,214,noResp,NA,G_4,stimuli/Baron6dB/070303.wav,stimuli/Charlie/000100.wav,stimuli/Laker/020000.wav,NA,1,silence,silence,G_4,1,0,0,1,0
1,stimuli/tones/PercTri-21dB.wav,2,215,space,2.206,G_1,stimuli/Baron6dB/070300.wav,stimuli/Arrow/040200.wav,stimuli/Tiger/050300.wav,NA,1,-21dB,PercTri,G_1,1,1,0,0,0
10,stimuli/tones/FlatIEC-30dB.wav,2,0,noResp,NA,W_2,stimuli/Baron6dB/070201.wav,stimuli/Tiger/050000.wav,stimuli/Ringo/010000.wav,NA,0,-30dB,Flat,W_2,1,0,1,0,0
10,stimuli/tones/PercTri-21dB.wav,0.75,1,noResp,NA,B_3,stimuli/Baron6dB/070002.wav,stimuli/Arrow/040202.wav,stimuli/Charlie/000302.wav,NA,0,-21dB,PercTri,B_3,1,0,1,0,0
10,stimuli/tones/FlatIEC-24dB.wav,2,2,noResp,NA,B_2,stimuli/Baron6dB/070001.wav,stimuli/Eagle/060102.wav,stimuli/Ringo/010302.wav,NA,0,-24dB,Flat,B_2,1,0,1,0,0
10,stimuli/tones/FlatIEC-18dB.wav,2,3,noResp,NA,W_3,stimuli/Baron6dB/070102.wav,stimuli/Arrow/040103.wav,stimuli/Tiger/050202.wav,NA,0,-18dB,Flat,R_3,0,0,1,0,0
10,stimuli/tones/FlatIEC-30dB.wav,0.75,4,noResp,NA,G_2,stimuli/Baron6dB/070301.wav,stimuli/Eagle/060300.wav,stimuli/Charlie/000102.wav,NA,0,-30dB,Flat,G_2,1,0,1,0,0
10,stimuli/tones/silence.wav,1.25,5,noResp,NA,R_1,stimuli/Baron6dB/070300.wav,stimuli/Hopper/030300.wav,stimuli/Eagle/060003.wav,NA,1,silence,silence,G_1,0,0,0,1,0
10,stimuli/tones/silence.wav,0.75,6,noResp,NA,W_1,stimuli/Baron6dB/070101.wav,stimuli/Tiger/050303.wav,stimuli/Eagle/060302.wav,NA,1,silence,silence,R_2,0,0,0,1,0
10,stimuli/tones/PercTri-33dB.wav,2,7,noResp,NA,G_3,stimuli/Baron6dB/070302.wav,stimuli/Arrow/040203.wav,stimuli/Charlie/000301.wav,NA,0,-33dB,PercTri,G_3,1,0,1,0,0
10,stimuli/tones/silence.wav,1.25,8,noResp,NA,W_1,stimuli/Baron6dB/070200.wav,stimuli/Eagle/060302.wav,stimuli/Arrow/040201.wav,NA,1,silence,silence,W_1,1,0,0,1,0
10,stimuli/tones/FlatIEC-30dB.wav,0.75,9,noResp,NA,B_1,stimuli/Baron6dB/070000.wav,stimuli/Eagle/060000.wav,stimuli/Ringo/010102.wav,NA,0,-30dB,Flat,B_1,1,0,1,0,0
10,stimuli/tones/silence.wav,1.25,10,noResp,NA,W_4,stimuli/Baron6dB/070203.wav,stimuli/Charlie/000100.wav,stimuli/Laker/020300.wav,NA,1,silence,silence,W_4,1,0,0,1,0
10,stimuli/tones/FlatIEC-24dB.wav,0.75,11,noResp,NA,W_3,stimuli/Baron6dB/070202.wav,stimuli/Arrow/040301.wav,stimuli/Tiger/050201.wav,NA,0,-24dB,Flat,W_3,1,0,1,0,0
10,stimuli/tones/PercTri-30dB.wav,0.75,12,noResp,NA,B_4,stimuli/Baron6dB/070003.wav,stimuli/Charlie/000302.wav,stimuli/Tiger/050001.wav,NA,0,-30dB,PercTri,B_4,1,0,1,0,0
10,stimuli/tones/silence.wav,2,13,noResp,NA,R_4,stimuli/Baron6dB/070103.wav,stimuli/Eagle/060101.wav,stimuli/Charlie/000201.wav,NA,1,silence,silence,R_4,1,0,0,1,0
10,stimuli/tones/silence.wav,0.75,14,noResp,NA,G_4,stimuli/Baron6dB/070303.wav,stimuli/Ringo/010003.wav,stimuli/Laker/020200.wav,NA,1,silence,silence,G_4,1,0,0,1,0
10,stimuli/tones/silence.wav,0.75,15,noResp,NA,R_1,stimuli/Baron6dB/070100.wav,stimuli/Ringo/010102.wav,stimuli/Arrow/040101.wav,NA,1,silence,silence,R_1,1,0,0,1,0
10,stimuli/tones/silence.wav,1.25,16,noResp,NA,B_1,stimuli/Baron6dB/070000.wav,stimuli/Hopper/030301.wav,stimuli/Laker/020301.wav,NA,1,silence,silence,B_1,1,0,0,1,0
10,stimuli/tones/silence.wav,0.75,17,noResp,NA,W_3,stimuli/Baron6dB/070102.wav,stimuli/Tiger/050201.wav,stimuli/Laker/020100.wav,NA,1,silence,silence,R_3,0,0,0,1,0
10,stimuli/tones/PercTri-24dB.wav,2,18,noResp,NA,W_4,stimuli/Baron6dB/070203.wav,stimuli/Charlie/000002.wav,stimuli/Laker/020101.wav,NA,0,-24dB,PercTri,W_4,1,0,1,0,0
10,stimuli/tones/silence.wav,1.25,19,noResp,NA,W_2,stimuli/Baron6dB/070201.wav,stimuli/Hopper/030201.wav,stimuli/Hopper/030003.wav,NA,1,silence,silence,W_2,1,0,0,1,0
10,stimuli/tones/PercTri-24dB.wav,0.75,20,noResp,NA,R_2,stimuli/Baron6dB/070101.wav,stimuli/Tiger/050203.wav,stimuli/Hopper/030202.wav,NA,0,-24dB,PercTri,R_2,1,0,1,0,0
10,stimuli/tones/silence.wav,1.25,21,noResp,NA,R_4,stimuli/Baron6dB/070103.wav,stimuli/Charlie/000300.wav,stimuli/Tiger/050000.wav,NA,1,silence,silence,R_4,1,0,0,1,0
10,stimuli/tones/silence.wav,1.25,22,noResp,NA,G_1,stimuli/Baron6dB/070300.wav,stimuli/Hopper/030002.wav,stimuli/Tiger/050301.wav,NA,1,silence,silence,G_1,1,0,0,1,0
10,stimuli/tones/silence.wav,2,23,noResp,NA,B_4,stimuli/Baron6dB/070003.wav,stimuli/Laker/020003.wav,stimuli/Tiger/050302.wav,NA,1,silence,silence,B_4,1,0,0,1,0
10,stimuli/tones/PercTri-24dB.wav,0.75,24,noResp,NA,W_1,stimuli/Baron6dB/070200.wav,stimuli/Eagle/060001.wav,stimuli/Eagle/060300.wav,NA,0,-24dB,PercTri,W_1,1,0,1,0,0
10,stimuli/tones/FlatIEC-30dB.wav,2,25,noResp,NA,G_2,stimuli/Baron6dB/070301.wav,stimuli/Laker/020100.wav,stimuli/Arrow/040200.wav,NA,0,-30dB,Flat,G_2,1,0,1,0,0
10,stimuli/tones/PercTri-24dB.wav,2,26,noResp,NA,B_3,stimuli/Baron6dB/070002.wav,stimuli/Ringo/010002.wav,stimuli/Arrow/040303.wav,NA,0,-24dB,PercTri,B_3,1,0,1,0,0
10,stimuli/tones/FlatIEC-21dB.wav,0.75,27,noResp,NA,G_4,stimuli/Baron6dB/070303.wav,stimuli/Ringo/010103.wav,stimuli/Hopper/030301.wav,NA,0,-21dB,Flat,G_4,1,0,1,0,0
10,stimuli/tones/silence.wav,0.75,28,noResp,NA,R_1,stimuli/Baron6dB/070100.wav,stimuli/Laker/020102.wav,stimuli/Ringo/010002.wav,NA,1,silence,silence,R_1,1,0,0,1,0
10,stimuli/tones/PercTri-30dB.wav,2,29,noResp,NA,G_1,stimuli/Baron6dB/070302.wav,stimuli/Arrow/040002.wav,stimuli/Tiger/050300.wav,NA,0,-30dB,PercTri,G_3,0,0,1,0,0
10,stimuli/tones/silence.wav,0.75,30,noResp,NA,W_3,stimuli/Baron6dB/070202.wav,stimuli/Laker/020201.wav,stimuli/Ringo/010301.wav,NA,1,silence,silence,W_3,1,0,0,1,0
10,stimuli/tones/silence.wav,1.25,31,noResp,NA,B_2,stimuli/Baron6dB/070001.wav,stimuli/Arrow/040303.wav,stimuli/Charlie/000202.wav,NA,1,silence,silence,B_2,1,0,0,1,0
10,stimuli/tones/silence.wav,0.75,32,noResp,NA,R_3,stimuli/Baron6dB/070102.wav,stimuli/Charlie/000102.wav,stimuli/Arrow/040203.wav,NA,1,silence,silence,R_3,1,0,0,1,0
10,stimuli/tones/silence.wav,0.75,33,noResp,NA,G_4,stimuli/Baron6dB/070303.wav,stimuli/Tiger/050300.wav,stimuli/Eagle/060303.wav,NA,1,silence,silence,G_4,1,0,0,1,0
10,stimuli/tones/PercTri-27dB.wav,2,34,noResp,NA,R_4,stimuli/Baron6dB/070103.wav,stimuli/Charlie/000201.wav,stimuli/Laker/020202.wav,NA,0,-27dB,PercTri,R_4,1,0,1,0,0
10,stimuli/tones/FlatIEC-33dB.wav,0.75,35,noResp,NA,B_4,stimuli/Baron6dB/070003.wav,stimuli/Hopper/030003.wav,stimuli/Charlie/000300.wav,NA,0,-33dB,Flat,B_4,1,0,1,0,0
10,stimuli/tones/FlatIEC-24dB.wav,1.25,36,noResp,NA,B_2,stimuli/Baron6dB/070001.wav,stimuli/Charlie/000101.wav,stimuli/Arrow/040103.wav,NA,0,-24dB,Flat,B_2,1,0,1,0,0
10,stimuli/tones/silence.wav,0.75,37,noResp,NA,W_3,stimuli/Baron6dB/070202.wav,stimuli/Laker/020203.wav,stimuli/Arrow/040102.wav,NA,1,silence,silence,W_3,1,0,0,1,0
10,stimuli/tones/FlatIEC-24dB.wav,1.25,38,noResp,NA,B_3,stimuli/Baron6dB/070002.wav,stimuli/Ringo/010000.wav,stimuli/Eagle/060202.wav,NA,0,-24dB,Flat,B_3,1,0,1,0,0
10,stimuli/tones/silence.wav,1.25,39,noResp,NA,B_1,stimuli/Baron6dB/070302.wav,stimuli/Ringo/010001.wav,stimuli/Hopper/030201.wav,NA,1,silence,silence,G_3,0,0,0,1,0
10,stimuli/tones/silence.wav,1.25,40,noResp,NA,G_2,stimuli/Baron6dB/070301.wav,stimuli/Arrow/040100.wav,stimuli/Ringo/010303.wav,NA,1,silence,silence,G_2,1,0,0,1,0
10,stimuli/tones/FlatIEC-24dB.wav,0.75,41,noResp,NA,W_4,stimuli/Baron6dB/070203.wav,stimuli/Ringo/010200.wav,stimuli/Laker/020303.wav,NA,0,-24dB,Flat,W_4,1,0,1,0,0
10,stimuli/tones/FlatIEC-33dB.wav,2,42,noResp,NA,G_1,stimuli/Baron6dB/070300.wav,stimuli/Laker/020101.wav,stimuli/Hopper/030101.wav,NA,0,-33dB,Flat,G_1,1,0,1,0,0
10,stimuli/tones/silence.wav,1.25,43,noResp,NA,G_2,stimuli/Baron6dB/070201.wav,stimuli/Eagle/060103.wav,stimuli/Hopper/030100.wav,NA,1,silence,silence,W_2,0,0,0,1,0
10,stimuli/tones/FlatIEC-27dB.wav,0.75,44,noResp,NA,R_1,stimuli/Baron6dB/070100.wav,stimuli/Tiger/050103.wav,stimuli/Arrow/040001.wav,NA,0,-27dB,Flat,R_1,1,0,1,0,0
10,stimuli/tones/silence.wav,1.25,45,noResp,NA,W_1,stimuli/Baron6dB/070200.wav,stimuli/Eagle/060303.wav,stimuli/Ringo/010203.wav,NA,1,silence,silence,W_1,1,0,0,1,0
10,stimuli/tones/PercTri-18dB.wav,0.75,46,noResp,NA,R_2,stimuli/Baron6dB/070101.wav,stimuli/Tiger/050101.wav,stimuli/Arrow/040100.wav,NA,0,-18dB,PercTri,R_2,1,0,1,0,0
10,stimuli/tones/PercTri-30dB.wav,2,47,noResp,NA,B_1,stimuli/Baron6dB/070000.wav,stimuli/Laker/020300.wav,stimuli/Hopper/030000.wav,NA,0,-30dB,PercTri,B_1,1,0,1,0,0
10,stimuli/tones/PercTri-33dB.wav,0.75,48,noResp,NA,R_1,stimuli/Baron6dB/070100.wav,stimuli/Tiger/050102.wav,stimuli/Charlie/000002.wav,NA,0,-33dB,PercTri,R_1,1,0,1,0,0
10,stimuli/tones/silence.wav,2,49,noResp,NA,B_3,stimuli/Baron6dB/070002.wav,stimuli/Hopper/030203.wav,stimuli/Arrow/040302.wav,NA,1,silence,silence,B_3,1,0,0,1,0
10,stimuli/tones/silence.wav,2,50,noResp,NA,G_1,stimuli/Baron6dB/070300.wav,stimuli/Hopper/030000.wav,stimuli/Charlie/000100.wav,NA,1,silence,silence,G_1,1,0,0,1,0
10,stimuli/tones/silence.wav,0.75,51,noResp,NA,W_1,stimuli/Baron6dB/070200.wav,stimuli/Arrow/040101.wav,stimuli/Hopper/030303.wav,NA,1,silence,silence,W_1,1,0,0,1,0
10,stimuli/tones/silence.wav,0.75,52,noResp,NA,G_2,stimuli/Baron6dB/070301.wav,stimuli/Laker/020002.wav,stimuli/Eagle/060100.wav,NA,1,silence,silence,G_2,1,0,0,1,0
10,stimuli/tones/silence.wav,2,53,noResp,NA,R_3,stimuli/Baron6dB/070102.wav,stimuli/Tiger/050200.wav,stimuli/Hopper/030002.wav,NA,1,silence,silence,R_3,1,0,0,1,0
10,stimuli/tones/silence.wav,2,54,noResp,NA,B_2,stimuli/Baron6dB/070001.wav,stimuli/Eagle/060200.wav,stimuli/Eagle/060301.wav,NA,1,silence,silence,B_2,1,0,0,1,0
10,stimuli/tones/FlatIEC-18dB.wav,1.25,55,noResp,NA,B_1,stimuli/Baron6dB/070000.wav,stimuli/Arrow/040300.wav,stimuli/Tiger/050103.wav,NA,0,-18dB,Flat,B_1,1,0,1,0,0
10,stimuli/tones/FlatIEC-33dB.wav,2,56,noResp,NA,R_4,stimuli/Baron6dB/070103.wav,stimuli/Eagle/060003.wav,stimuli/Charlie/000003.wav,NA,0,-33dB,Flat,R_4,1,0,1,0,0
10,stimuli/tones/PercTri-18dB.wav,2,57,noResp,NA,R_2,stimuli/Baron6dB/070101.wav,stimuli/Laker/020302.wav,stimuli/Laker/020103.wav,NA,0,-18dB,PercTri,R_2,1,0,1,0,0
10,stimuli/tones/PercTri-27dB.wav,0.75,58,noResp,NA,B_4,stimuli/Baron6dB/070003.wav,stimuli/Charlie/000000.wav,stimuli/Eagle/060000.wav,NA,0,-27dB,PercTri,B_4,1,0,1,0,0
10,stimuli/tones/PercTri-30dB.wav,1.25,59,noResp,NA,G_4,stimuli/Baron6dB/070303.wav,stimuli/Ringo/010100.wav,stimuli/Ringo/010202.wav,NA,0,-30dB,PercTri,G_4,1,0,1,0,0
10,stimuli/tones/silence.wav,0.75,60,noResp,NA,G_2,stimuli/Baron6dB/070302.wav,stimuli/Ringo/010300.wav,stimuli/Eagle/060101.wav,NA,1,silence,silence,G_3,0,0,0,1,0
10,stimuli/tones/silence.wav,1.25,61,noResp,NA,W_3,stimuli/Baron6dB/070202.wav,stimuli/Laker/020000.wav,stimuli/Eagle/060103.wav,NA,1,silence,silence,W_3,1,0,0,1,0
10,stimuli/tones/silence.wav,0.75,62,noResp,NA,W_4,stimuli/Baron6dB/070203.wav,stimuli/Charlie/000303.wav,stimuli/Tiger/050002.wav,NA,1,silence,silence,W_4,1,0,0,1,0
10,stimuli/tones/silence.wav,2,63,noResp,NA,W_2,stimuli/Baron6dB/070201.wav,stimuli/Ringo/010202.wav,stimuli/Hopper/030302.wav,NA,1,silence,silence,W_2,1,0,0,1,0
10,stimuli/tones/silence.wav,2,64,noResp,NA,R_1,stimuli/Baron6dB/070100.wav,stimuli/Laker/020103.wav,stimuli/Ringo/010200.wav,NA,1,silence,silence,R_1,1,0,0,1,0
10,stimuli/tones/PercTri-33dB.wav,1.25,65,noResp,NA,W_1,stimuli/Baron6dB/070200.wav,stimuli/Charlie/000203.wav,stimuli/Tiger/050101.wav,NA,0,-33dB,PercTri,W_1,1,0,1,0,0
10,stimuli/tones/FlatIEC-33dB.wav,0.75,66,noResp,NA,W_3,stimuli/Baron6dB/070102.wav,stimuli/Ringo/010303.wav,stimuli/Charlie/000203.wav,NA,0,-33dB,Flat,R_3,0,0,1,0,0
10,stimuli/tones/FlatIEC-18dB.wav,0.75,67,noResp,NA,B_3,stimuli/Baron6dB/070002.wav,stimuli/Arrow/040003.wav,stimuli/Hopper/030001.wav,NA,0,-18dB,Flat,B_3,1,0,1,0,0
10,stimuli/tones/silence.wav,2,68,noResp,NA,G_4,stimuli/Baron6dB/070303.wav,stimuli/Eagle/060203.wav,stimuli/Ringo/010001.wav,NA,1,silence,silence,G_4,1,0,0,1,0
10,stimuli/tones/silence.wav,1.25,69,noResp,NA,B_3,stimuli/Baron6dB/070202.wav,stimuli/Eagle/060202.wav,stimuli/Laker/020201.wav,NA,1,silence,silence,W_3,0,0,0,1,0
10,stimuli/tones/silence.wav,2,70,noResp,NA,B_4,stimuli/Baron6dB/070003.wav,stimuli/Hopper/030302.wav,stimuli/Laker/020002.wav,NA,1,silence,silence,B_4,1,0,0,1,0
10,stimuli/tones/silence.wav,0.75,71,noResp,NA,B_2,stimuli/Baron6dB/070001.wav,stimuli/Hopper/030303.wav,stimuli/Charlie/000103.wav,NA,1,silence,silence,B_2,1,0,0,1,0
10,stimuli/tones/PercTri-33dB.wav,1.25,72,noResp,NA,G_2,stimuli/Baron6dB/070301.wav,stimuli/Arrow/040200.wav,stimuli/Arrow/040300.wav,NA,0,-33dB,PercTri,G_2,1,0,1,0,0
10,stimuli/tones/silence.wav,1.25,73,noResp,NA,G_1,stimuli/Baron6dB/070300.wav,stimuli/Hopper/030202.wav,stimuli/Eagle/060203.wav,NA,1,silence,silence,G_1,1,0,0,1,0
10,stimuli/tones/silence.wav,0.75,74,noResp,NA,G_1,stimuli/Baron6dB/070302.wav,stimuli/Tiger/050001.wav,stimuli/Eagle/060200.wav,NA,1,silence,silence,G_3,0,0,0,1,0
10,stimuli/tones/silence.wav,1.25,75,noResp,NA,W_4,stimuli/Baron6dB/070203.wav,stimuli/Ringo/010101.wav,stimuli/Laker/020000.wav,NA,1,silence,silence,W_4,1,0,0,1,0
10,stimuli/tones/silence.wav,1.25,76,noResp,NA,R_4,stimuli/Baron6dB/070103.wav,stimuli/Charlie/000200.wav,stimuli/Hopper/030200.wav,NA,1,silence,silence,R_4,1,0,0,1,0
10,stimuli/tones/silence.wav,0.75,77,noResp,NA,W_2,stimuli/Baron6dB/070201.wav,stimuli/Charlie/000301.wav,stimuli/Arrow/040002.wav,NA,1,silence,silence,W_2,1,0,0,1,0
10,stimuli/tones/silence.wav,2,78,noResp,NA,B_1,stimuli/Baron6dB/070000.wav,stimuli/Tiger/050003.wav,stimuli/Eagle/060102.wav,NA,1,silence,silence,B_1,1,0,0,1,0
10,stimuli/tones/silence.wav,0.75,79,noResp,NA,R_2,stimuli/Baron6dB/070101.wav,stimuli/Tiger/050002.wav,stimuli/Tiger/050303.wav,NA,1,silence,silence,R_2,1,0,0,1,0
10,stimuli/tones/FlatIEC-18dB.wav,1.25,80,noResp,NA,R_3,stimuli/Baron6dB/070102.wav,stimuli/Laker/020202.wav,stimuli/Charlie/000000.wav,NA,0,-18dB,Flat,R_3,1,0,1,0,0
10,stimuli/tones/PercTri-18dB.wav,0.75,81,noResp,NA,W_4,stimuli/Baron6dB/070203.wav,stimuli/Ringo/010203.wav,stimuli/Laker/020001.wav,NA,0,-18dB,PercTri,W_4,1,0,1,0,0
10,stimuli/tones/PercTri-33dB.wav,2,82,noResp,NA,B_1,stimuli/Baron6dB/070000.wav,stimuli/Tiger/050100.wav,stimuli/Hopper/030102.wav,NA,0,-33dB,PercTri,B_1,1,0,1,0,0
10,stimuli/tones/silence.wav,0.75,83,noResp,NA,R_2,stimuli/Baron6dB/070002.wav,stimuli/Laker/020303.wav,stimuli/Tiger/050003.wav,NA,1,silence,silence,B_3,0,0,0,1,0
10,stimuli/tones/FlatIEC-18dB.wav,2,84,noResp,NA,G_2,stimuli/Baron6dB/070301.wav,stimuli/Ringo/010301.wav,stimuli/Eagle/060002.wav,NA,0,-18dB,Flat,G_2,1,0,1,0,0
10,stimuli/tones/silence.wav,2,85,noResp,NA,B_4,stimuli/Baron6dB/070003.wav,stimuli/Laker/020001.wav,stimuli/Ringo/010101.wav,NA,1,silence,silence,B_4,1,0,0,1,0
10,stimuli/tones/silence.wav,1.25,86,noResp,NA,W_3,stimuli/Baron6dB/070202.wav,stimuli/Hopper/030101.wav,stimuli/Hopper/030203.wav,NA,1,silence,silence,W_3,1,0,0,1,0
10,stimuli/tones/PercTri-18dB.wav,2,87,noResp,NA,W_2,stimuli/Baron6dB/070201.wav,stimuli/Hopper/030103.wav,stimuli/Arrow/040301.wav,NA,0,-18dB,PercTri,W_2,1,0,1,0,0
10,stimuli/tones/FlatIEC-24dB.wav,2,88,noResp,NA,G_3,stimuli/Baron6dB/070302.wav,stimuli/Eagle/060201.wav,stimuli/Charlie/000200.wav,NA,0,-24dB,Flat,G_3,1,0,1,0,0
10,stimuli/tones/silence.wav,1.25,89,noResp,NA,G_4,stimuli/Baron6dB/070303.wav,stimuli/Arrow/040102.wav,stimuli/Laker/020003.wav,NA,1,silence,silence,G_4,1,0,0,1,0
10,stimuli/tones/PercTri-21dB.wav,0.75,90,noResp,NA,R_2,stimuli/Baron6dB/070101.wav,stimuli/Eagle/060100.wav,stimuli/Arrow/040202.wav,NA,0,-21dB,PercTri,R_2,1,0,1,0,0
10,stimuli/tones/PercTri-27dB.wav,2,91,noResp,NA,B_2,stimuli/Baron6dB/070001.wav,stimuli/Charlie/000003.wav,stimuli/Arrow/040000.wav,NA,0,-27dB,PercTri,B_2,1,0,1,0,0
10,stimuli/tones/PercTri-33dB.wav,1.25,92,noResp,NA,R_4,stimuli/Baron6dB/070103.wav,stimuli/Hopper/030001.wav,stimuli/Tiger/050200.wav,NA,0,-33dB,PercTri,R_4,1,0,1,0,0
10,stimuli/tones/silence.wav,2,93,noResp,NA,W_1,stimuli/Baron6dB/070200.wav,stimuli/Tiger/050302.wav,stimuli/Hopper/030300.wav,NA,1,silence,silence,W_1,1,0,0,1,0
10,stimuli/tones/PercTri-27dB.wav,1.25,94,noResp,NA,G_1,stimuli/Baron6dB/070300.wav,stimuli/Eagle/060301.wav,stimuli/Ringo/010103.wav,NA,0,-27dB,PercTri,G_1,1,0,1,0,0
10,stimuli/tones/silence.wav,0.75,95,noResp,NA,R_1,stimuli/Baron6dB/070100.wav,stimuli/Ringo/010302.wav,stimuli/Charlie/000001.wav,NA,1,silence,silence,R_1,1,0,0,1,0
10,stimuli/tones/PercTri-21dB.wav,1.25,96,noResp,NA,G_2,stimuli/Baron6dB/070302.wav,stimuli/Hopper/030100.wav,stimuli/Eagle/060201.wav,NA,0,-21dB,PercTri,G_3,0,0,1,0,0
10,stimuli/tones/PercTri-33dB.wav,2,97,noResp,NA,W_3,stimuli/Baron6dB/070202.wav,stimuli/Charlie/000103.wav,stimuli/Ringo/010201.wav,NA,0,-33dB,PercTri,W_3,1,0,1,0,0
10,stimuli/tones/silence.wav,2,98,noResp,NA,G_4,stimuli/Baron6dB/070303.wav,stimuli/Ringo/010201.wav,stimuli/Laker/020102.wav,NA,1,silence,silence,G_4,1,0,0,1,0
10,stimuli/tones/PercTri-27dB.wav,1.25,99,noResp,NA,B_4,stimuli/Baron6dB/070003.wav,stimuli/Laker/020301.wav,stimuli/Laker/020302.wav,NA,0,-27dB,PercTri,B_4,1,0,1,0,0
10,stimuli/tones/PercTri-27dB.wav,0.75,100,noResp,NA,G_2,stimuli/Baron6dB/070300.wav,stimuli/Charlie/000202.wav,stimuli/Tiger/050102.wav,NA,0,-27dB,PercTri,G_1,0,0,1,0,0
10,stimuli/tones/FlatIEC-21dB.wav,1.25,101,noResp,NA,W_4,stimuli/Baron6dB/070203.wav,stimuli/Eagle/060002.wav,stimuli/Arrow/040003.wav,NA,0,-21dB,Flat,W_4,1,0,1,0,0
10,stimuli/tones/silence.wav,0.75,102,noResp,NA,B_3,stimuli/Baron6dB/070002.wav,stimuli/Tiger/050301.wav,stimuli/Hopper/030103.wav,NA,1,silence,silence,B_3,1,0,0,1,0
10,stimuli/tones/PercTri-30dB.wav,0.75,103,noResp,NA,B_2,stimuli/Baron6dB/070001.wav,stimuli/Arrow/040000.wav,stimuli/Ringo/010300.wav,NA,0,-30dB,PercTri,B_2,1,0,1,0,0
10,stimuli/tones/FlatIEC-27dB.wav,1.25,104,noResp,NA,R_2,stimuli/Baron6dB/070101.wav,stimuli/Arrow/040001.wav,stimuli/Tiger/050203.wav,NA,0,-27dB,Flat,R_2,1,0,1,0,0
10,stimuli/tones/silence.wav,0.75,105,noResp,NA,W_2,stimuli/Baron6dB/070201.wav,stimuli/Charlie/000001.wav,stimuli/Tiger/050100.wav,NA,1,silence,silence,W_2,1,0,0,1,0
10,stimuli/tones/FlatIEC-18dB.wav,2,106,noResp,NA,W_1,stimuli/Baron6dB/070200.wav,stimuli/Arrow/040201.wav,stimuli/Charlie/000101.wav,NA,0,-18dB,Flat,W_1,1,0,1,0,0
10,stimuli/tones/silence.wav,0.75,107,noResp,NA,G_4,stimuli/Baron6dB/070103.wav,stimuli/Laker/020200.wav,stimuli/Eagle/060001.wav,NA,1,silence,silence,R_4,0,0,0,1,0
10,stimuli/tones/PercTri-33dB.wav,0.75,108,noResp,NA,R_1,stimuli/Baron6dB/070100.wav,stimuli/Hopper/030102.wav,stimuli/Laker/020203.wav,NA,0,-33dB,PercTri,R_1,1,0,1,0,0
10,stimuli/tones/silence.wav,0.75,109,noResp,NA,B_1,stimuli/Baron6dB/070000.wav,stimuli/Arrow/040302.wav,stimuli/Ringo/010100.wav,NA,1,silence,silence,B_1,1,0,0,1,0
10,stimuli/tones/FlatIEC-18dB.wav,0.75,110,noResp,NA,G_2,stimuli/Baron6dB/070301.wav,stimuli/Tiger/050202.wav,stimuli/Charlie/000303.wav,NA,0,-18dB,Flat,G_2,1,0,1,0,0
10,stimuli/tones/silence.wav,2,111,noResp,NA,R_3,stimuli/Baron6dB/070102.wav,stimuli/Hopper/030200.wav,stimuli/Ringo/010003.wav,NA,1,silence,silence,R_3,1,0,0,1,0
10,stimuli/tones/silence.wav,0.75,112,noResp,NA,B_4,stimuli/Baron6dB/070003.wav,stimuli/Hopper/030102.wav,stimuli/Laker/020200.wav,NA,1,silence,silence,B_4,1,0,0,1,0
10,stimuli/tones/silence.wav,2,113,noResp,NA,R_3,stimuli/Baron6dB/070102.wav,stimuli/Ringo/010202.wav,stimuli/Charlie/000303.wav,NA,1,silence,silence,R_3,1,0,0,1,0
10,stimuli/tones/silence.wav,2,114,noResp,NA,R_4,stimuli/Baron6dB/070103.wav,stimuli/Hopper/030203.wav,stimuli/Laker/020003.wav,NA,1,silence,silence,R_4,1,0,0,1,0
10,stimuli/tones/silence.wav,1.25,115,noResp,NA,R_1,stimuli/Baron6dB/070100.wav,stimuli/Eagle/060302.wav,stimuli/Eagle/060002.wav,NA,1,silence,silence,R_1,1,0,0,1,0
10,stimuli/tones/silence.wav,1.25,116,noResp,NA,B_2,stimuli/Baron6dB/070001.wav,stimuli/Eagle/060003.wav,stimuli/Arrow/040001.wav,NA,1,silence,silence,B_2,1,0,0,1,0
10,stimuli/tones/silence.wav,1.25,117,noResp,NA,B_3,stimuli/Baron6dB/070002.wav,stimuli/Arrow/040101.wav,stimuli/Eagle/060200.wav,NA,1,silence,silence,B_3,1,0,0,1,0
10,stimuli/tones/silence.wav,0.75,118,noResp,NA,W_1,stimuli/Baron6dB/070200.wav,stimuli/Charlie/000202.wav,stimuli/Ringo/010101.wav,NA,1,silence,silence,W_1,1,0,0,1,0
10,stimuli/tones/silence.wav,2,119,noResp,NA,G_1,stimuli/Baron6dB/070300.wav,stimuli/Laker/020001.wav,stimuli/Tiger/050201.wav,NA,1,silence,silence,G_1,1,0,0,1,0
10,stimuli/tones/silence.wav,2,120,noResp,NA,W_3,stimuli/Baron6dB/070202.wav,stimuli/Charlie/000000.wav,stimuli/Tiger/050102.wav,NA,1,silence,silence,W_3,1,0,0,1,0
10,stimuli/tones/FlatIEC-27dB.wav,0.75,121,noResp,NA,G_2,stimuli/Baron6dB/070301.wav,stimuli/Tiger/050101.wav,stimuli/Ringo/010000.wav,NA,0,-27dB,Flat,G_2,1,0,1,0,0
10,stimuli/tones/PercTri-18dB.wav,1.25,122,noResp,NA,G_4,stimuli/Baron6dB/070303.wav,stimuli/Tiger/050103.wav,stimuli/Ringo/010200.wav,NA,0,-18dB,PercTri,G_4,1,0,1,0,0
10,stimuli/tones/PercTri-21dB.wav,1.25,123,noResp,NA,G_3,stimuli/Baron6dB/070302.wav,stimuli/Tiger/050100.wav,stimuli/Tiger/050301.wav,NA,0,-21dB,PercTri,G_3,1,0,1,0,0
10,stimuli/tones/silence.wav,0.75,124,noResp,NA,W_2,stimuli/Baron6dB/070201.wav,stimuli/Laker/020303.wav,stimuli/Ringo/010301.wav,NA,1,silence,silence,W_2,1,0,0,1,0
10,stimuli/tones/FlatIEC-27dB.wav,1.25,125,noResp,NA,R_2,stimuli/Baron6dB/070101.wav,stimuli/Hopper/030200.wav,stimuli/Charlie/000000.wav,NA,0,-27dB,Flat,R_2,1,0,1,0,0
10,stimuli/tones/silence.wav,1.25,126,noResp,NA,B_1,stimuli/Baron6dB/070000.wav,stimuli/Tiger/050001.wav,stimuli/Tiger/050101.wav,NA,1,silence,silence,B_1,1,0,0,1,0
10,stimuli/tones/silence.wav,1.25,127,noResp,NA,W_4,stimuli/Baron6dB/070203.wav,stimuli/Tiger/050000.wav,stimuli/Arrow/040300.wav,NA,1,silence,silence,W_4,1,0,0,1,0
10,stimuli/tones/PercTri-30dB.wav,0.75,128,noResp,NA,B_4,stimuli/Baron6dB/070003.wav,stimuli/Laker/020002.wav,stimuli/Tiger/050100.wav,NA,0,-30dB,PercTri,B_4,1,0,1,0,0
10,stimuli/tones/silence.wav,2,129,noResp,NA,R_4,stimuli/Baron6dB/070103.wav,stimuli/Arrow/040001.wav,stimuli/Tiger/050202.wav,NA,1,silence,silence,R_4,1,0,0,1,0
10,stimuli/tones/PercTri-30dB.wav,2,130,noResp,NA,G_1,stimuli/Baron6dB/070300.wav,stimuli/Laker/020302.wav,stimuli/Ringo/010202.wav,NA,0,-30dB,PercTri,G_1,1,0,1,0,0
10,stimuli/tones/silence.wav,0.75,131,noResp,NA,R_2,stimuli/Baron6dB/070101.wav,stimuli/Tiger/050202.wav,stimuli/Laker/020002.wav,NA,1,silence,silence,R_2,1,0,0,1,0
10,stimuli/tones/silence.wav,1.25,132,noResp,NA,B_1,stimuli/Baron6dB/070000.wav,stimuli/Ringo/010100.wav,stimuli/Laker/020000.wav,NA,1,silence,silence,B_1,1,0,0,1,0
10,stimuli/tones/PercTri-30dB.wav,1.25,133,noResp,NA,W_4,stimuli/Baron6dB/070203.wav,stimuli/Tiger/050203.wav,stimuli/Laker/020300.wav,NA,0,-30dB,PercTri,W_4,1,0,1,0,0
10,stimuli/tones/silence.wav,2,134,noResp,NA,G_4,stimuli/Baron6dB/070303.wav,stimuli/Hopper/030302.wav,stimuli/Arrow/040200.wav,NA,1,silence,silence,G_4,1,0,0,1,0
10,stimuli/tones/silence.wav,2,135,noResp,NA,G_2,stimuli/Baron6dB/070301.wav,stimuli/Arrow/040203.wav,stimuli/Eagle/060300.wav,NA,1,silence,silence,G_2,1,0,0,1,0
10,stimuli/tones/silence.wav,2,136,noResp,NA,R_1,stimuli/Baron6dB/070100.wav,stimuli/Eagle/060102.wav,stimuli/Charlie/000001.wav,NA,1,silence,silence,R_1,1,0,0,1,0
10,stimuli/tones/silence.wav,2,137,noResp,NA,W_3,stimuli/Baron6dB/070202.wav,stimuli/Ringo/010103.wav,stimuli/Laker/020001.wav,NA,1,silence,silence,W_3,1,0,0,1,0
10,stimuli/tones/silence.wav,0.75,138,noResp,NA,R_3,stimuli/Baron6dB/070102.wav,stimuli/Ringo/010203.wav,stimuli/Arrow/040000.wav,NA,1,silence,silence,R_3,1,0,0,1,0
10,stimuli/tones/FlatIEC-24dB.wav,0.75,139,noResp,NA,B_3,stimuli/Baron6dB/070002.wav,stimuli/Charlie/000300.wav,stimuli/Arrow/040002.wav,NA,0,-24dB,Flat,B_3,1,0,1,0,0
10,stimuli/tones/FlatIEC-21dB.wav,2,140,noResp,NA,B_2,stimuli/Baron6dB/070001.wav,stimuli/Laker/020000.wav,stimuli/Hopper/030203.wav,NA,0,-21dB,Flat,B_2,1,0,1,0,0
10,stimuli/tones/PercTri-24dB.wav,0.75,141,noResp,NA,W_2,stimuli/Baron6dB/070201.wav,stimuli/Ringo/010101.wav,stimuli/Laker/020203.wav,NA,0,-24dB,PercTri,W_2,1,0,1,0,0
10,stimuli/tones/FlatIEC-18dB.wav,0.75,142,noResp,NA,G_3,stimuli/Baron6dB/070302.wav,stimuli/Charlie/000103.wav,stimuli/Hopper/030200.wav,NA,0,-18dB,Flat,G_3,1,0,1,0,0
10,stimuli/tones/silence.wav,0.75,143,noResp,NA,W_1,stimuli/Baron6dB/070200.wav,stimuli/Hopper/030101.wav,stimuli/Eagle/060302.wav,NA,1,silence,silence,W_1,1,0,0,1,0
10,stimuli/tones/silence.wav,0.75,144,noResp,NA,W_3,stimuli/Baron6dB/070202.wav,stimuli/Ringo/010002.wav,stimuli/Tiger/050303.wav,NA,1,silence,silence,W_3,1,0,0,1,0
10,stimuli/tones/FlatIEC-24dB.wav,2,145,noResp,NA,B_2,stimuli/Baron6dB/070001.wav,stimuli/Arrow/040003.wav,stimuli/Tiger/050300.wav,NA,0,-24dB,Flat,B_2,1,0,1,0,0
10,stimuli/tones/PercTri-21dB.wav,1.25,146,noResp,NA,G_3,stimuli/Baron6dB/070301.wav,stimuli/Arrow/040103.wav,stimuli/Charlie/000202.wav,NA,0,-21dB,PercTri,G_2,0,0,1,0,0
10,stimuli/tones/FlatIEC-30dB.wav,1.25,147,noResp,NA,W_2,stimuli/Baron6dB/070101.wav,stimuli/Hopper/030100.wav,stimuli/Ringo/010001.wav,NA,0,-30dB,Flat,R_2,0,0,1,0,0
10,stimuli/tones/PercTri-33dB.wav,0.75,148,noResp,NA,R_3,stimuli/Baron6dB/070102.wav,stimuli/Ringo/010102.wav,stimuli/Laker/020303.wav,NA,0,-33dB,PercTri,R_3,1,0,1,0,0
10,stimuli/tones/silence.wav,1.25,149,noResp,NA,W_4,stimuli/Baron6dB/070103.wav,stimuli/Laker/020300.wav,stimuli/Eagle/060001.wav,NA,1,silence,silence,R_4,0,0,0,1,0
10,stimuli/tones/silence.wav,0.75,150,noResp,NA,R_3,stimuli/Baron6dB/070002.wav,stimuli/Eagle/060101.wav,stimuli/Laker/020301.wav,NA,1,silence,silence,B_3,0,0,0,1,0
10,stimuli/tones/FlatIEC-27dB.wav,1.25,151,noResp,NA,W_2,stimuli/Baron6dB/070201.wav,stimuli/Eagle/060201.wav,stimuli/Tiger/050003.wav,NA,0,-27dB,Flat,W_2,1,0,1,0,0
10,stimuli/tones/silence.wav,2,152,noResp,NA,G_4,stimuli/Baron6dB/070303.wav,stimuli/Arrow/040102.wav,stimuli/Arrow/040201.wav,NA,1,silence,silence,G_4,1,0,0,1,0
10,stimuli/tones/silence.wav,0.75,153,noResp,NA,G_3,stimuli/Baron6dB/070302.wav,stimuli/Ringo/010003.wav,stimuli/Ringo/010201.wav,NA,1,silence,silence,G_3,1,0,0,1,0
10,stimuli/tones/FlatIEC-33dB.wav,1.25,154,noResp,NA,G_1,stimuli/Baron6dB/070003.wav,stimuli/Charlie/000100.wav,stimuli/Charlie/000300.wav,NA,0,-33dB,Flat,B_4,0,0,1,0,0
10,stimuli/tones/PercTri-18dB.wav,2,155,noResp,NA,W_4,stimuli/Baron6dB/070203.wav,stimuli/Arrow/040000.wav,stimuli/Tiger/050001.wav,NA,0,-18dB,PercTri,W_4,1,0,1,0,0
10,stimuli/tones/PercTri-21dB.wav,0.75,156,noResp,NA,G_1,stimuli/Baron6dB/070300.wav,stimuli/Eagle/060002.wav,stimuli/Charlie/000302.wav,NA,0,-21dB,PercTri,G_1,1,0,1,0,0
10,stimuli/tones/FlatIEC-21dB.wav,2,157,noResp,NA,W_1,stimuli/Baron6dB/070200.wav,stimuli/Tiger/050303.wav,stimuli/Hopper/030300.wav,NA,0,-21dB,Flat,W_1,1,0,1,0,0
10,stimuli/tones/FlatIEC-27dB.wav,2,158,noResp,NA,B_1,stimuli/Baron6dB/070000.wav,stimuli/Eagle/060203.wav,stimuli/Eagle/060103.wav,NA,0,-27dB,Flat,B_1,1,0,1,0,0
10,stimuli/tones/PercTri-21dB.wav,2,159,noResp,NA,R_1,stimuli/Baron6dB/070100.wav,stimuli/Tiger/050301.wav,stimuli/Charlie/000201.wav,NA,0,-21dB,PercTri,R_1,1,0,1,0,0
10,stimuli/tones/silence.wav,2,160,noResp,NA,R_2,stimuli/Baron6dB/070101.wav,stimuli/Tiger/050003.wav,stimuli/Tiger/050103.wav,NA,1,silence,silence,R_2,1,0,0,1,0
10,stimuli/tones/PercTri-24dB.wav,1.25,161,noResp,NA,G_2,stimuli/Baron6dB/070302.wav,stimuli/Ringo/010000.wav,stimuli/Eagle/060202.wav,NA,0,-24dB,PercTri,G_3,0,0,1,0,0
10,stimuli/tones/PercTri-24dB.wav,1.25,162,noResp,NA,W_4,stimuli/Baron6dB/070203.wav,stimuli/Eagle/060202.wav,stimuli/Eagle/060301.wav,NA,0,-24dB,PercTri,W_4,1,0,1,0,0
10,stimuli/tones/silence.wav,2,163,noResp,NA,R_4,stimuli/Baron6dB/070103.wav,stimuli/Charlie/000102.wav,stimuli/Hopper/030100.wav,NA,1,silence,silence,R_4,1,0,0,1,0
10,stimuli/tones/FlatIEC-21dB.wav,1.25,164,noResp,NA,W_3,stimuli/Baron6dB/070202.wav,stimuli/Hopper/030103.wav,stimuli/Ringo/010003.wav,NA,0,-21dB,Flat,W_3,1,0,1,0,0
10,stimuli/tones/FlatIEC-33dB.wav,1.25,165,noResp,NA,G_1,stimuli/Baron6dB/070300.wav,stimuli/Charlie/000303.wav,stimuli/Eagle/060000.wav,NA,0,-33dB,Flat,G_1,1,0,1,0,0
10,stimuli/tones/silence.wav,1.25,166,noResp,NA,B_1,stimuli/Baron6dB/070000.wav,stimuli/Laker/020102.wav,stimuli/Eagle/060101.wav,NA,1,silence,silence,B_1,1,0,0,1,0
10,stimuli/tones/silence.wav,1.25,167,noResp,NA,W_2,stimuli/Baron6dB/070201.wav,stimuli/Hopper/030000.wav,stimuli/Arrow/040301.wav,NA,1,silence,silence,W_2,1,0,0,1,0
10,stimuli/tones/FlatIEC-21dB.wav,0.75,168,noResp,NA,G_2,stimuli/Baron6dB/070301.wav,stimuli/Laker/020301.wav,stimuli/Ringo/010102.wav,NA,0,-21dB,Flat,G_2,1,0,1,0,0
10,stimuli/tones/FlatIEC-24dB.wav,1.25,169,noResp,NA,R_1,stimuli/Baron6dB/070100.wav,stimuli/Tiger/050201.wav,stimuli/Ringo/010100.wav,NA,0,-24dB,Flat,R_1,1,0,1,0,0
10,stimuli/tones/silence.wav,2,170,noResp,NA,W_1,stimuli/Baron6dB/070200.wav,stimuli/Hopper/030002.wav,stimuli/Hopper/030302.wav,NA,1,silence,silence,W_1,1,0,0,1,0
10,stimuli/tones/FlatIEC-33dB.wav,0.75,171,noResp,NA,B_4,stimuli/Baron6dB/070003.wav,stimuli/Hopper/030001.wav,stimuli/Laker/020100.wav,NA,0,-33dB,Flat,B_4,1,0,1,0,0
10,stimuli/tones/PercTri-27dB.wav,1.25,172,noResp,NA,B_3,stimuli/Baron6dB/070002.wav,stimuli/Tiger/050002.wav,stimuli/Arrow/040203.wav,NA,0,-27dB,PercTri,B_3,1,0,1,0,0
10,stimuli/tones/silence.wav,0.75,173,noResp,NA,B_2,stimuli/Baron6dB/070001.wav,stimuli/Charlie/000002.wav,stimuli/Tiger/050000.wav,NA,1,silence,silence,B_2,1,0,0,1,0
10,stimuli/tones/silence.wav,2,174,noResp,NA,G_1,stimuli/Baron6dB/070102.wav,stimuli/Tiger/050300.wav,stimuli/Charlie/000002.wav,NA,1,silence,silence,R_3,0,0,0,1,0
10,stimuli/tones/PercTri-21dB.wav,2,175,noResp,NA,G_4,stimuli/Baron6dB/070303.wav,stimuli/Arrow/040200.wav,stimuli/Ringo/010103.wav,NA,0,-21dB,PercTri,G_4,1,0,1,0,0
10,stimuli/tones/silence.wav,1.25,176,noResp,NA,R_3,stimuli/Baron6dB/070102.wav,stimuli/Arrow/040301.wav,stimuli/Hopper/030303.wav,NA,1,silence,silence,R_3,1,0,0,1,0
10,stimuli/tones/silence.wav,1.25,177,noResp,NA,B_1,stimuli/Baron6dB/070000.wav,stimuli/Hopper/030301.wav,stimuli/Hopper/030101.wav,NA,1,silence,silence,B_1,1,0,0,1,0
10,stimuli/tones/FlatIEC-21dB.wav,1.25,178,noResp,NA,G_2,stimuli/Baron6dB/070303.wav,stimuli/Arrow/040303.wav,stimuli/Tiger/050203.wav,NA,0,-21dB,Flat,G_4,0,0,1,0,0
10,stimuli/tones/FlatIEC-27dB.wav,2,179,noResp,NA,W_3,stimuli/Baron6dB/070202.wav,stimuli/Ringo/010200.wav,stimuli/Charlie/000100.wav,NA,0,-27dB,Flat,W_3,1,0,1,0,0
10,stimuli/tones/PercTri-27dB.wav,0.75,180,noResp,NA,G_2,stimuli/Baron6dB/070300.wav,stimuli/Ringo/010001.wav,stimuli/Charlie/000102.wav,NA,0,-27dB,PercTri,G_1,0,0,1,0,0
10,stimuli/tones/silence.wav,0.75,181,noResp,NA,W_4,stimuli/Baron6dB/070203.wav,stimuli/Arrow/040002.wav,stimuli/Tiger/050002.wav,NA,1,silence,silence,W_4,1,0,0,1,0
10,stimuli/tones/PercTri-18dB.wav,0.75,182,noResp,NA,R_4,stimuli/Baron6dB/070103.wav,stimuli/Eagle/060001.wav,stimuli/Arrow/040103.wav,NA,0,-18dB,PercTri,R_4,1,0,1,0,0
10,stimuli/tones/silence.wav,1.25,183,noResp,NA,G_2,stimuli/Baron6dB/070001.wav,stimuli/Charlie/000203.wav,stimuli/Eagle/060003.wav,NA,1,silence,silence,B_2,0,0,0,1,0
10,stimuli/tones/PercTri-30dB.wav,1.25,184,noResp,NA,G_3,stimuli/Baron6dB/070302.wav,stimuli/Tiger/050200.wav,stimuli/Hopper/030002.wav,NA,0,-30dB,PercTri,G_3,1,0,1,0,0
10,stimuli/tones/PercTri-27dB.wav,2,185,noResp,NA,B_3,stimuli/Baron6dB/070003.wav,stimuli/Charlie/000101.wav,stimuli/Laker/020101.wav,NA,0,-27dB,PercTri,B_4,0,0,1,0,0
10,stimuli/tones/FlatIEC-30dB.wav,0.75,186,noResp,NA,W_2,stimuli/Baron6dB/070201.wav,stimuli/Eagle/060300.wav,stimuli/Charlie/000200.wav,NA,0,-30dB,Flat,W_2,1,0,1,0,0
10,stimuli/tones/FlatIEC-30dB.wav,1.25,187,noResp,NA,B_3,stimuli/Baron6dB/070002.wav,stimuli/Eagle/060103.wav,stimuli/Charlie/000203.wav,NA,0,-30dB,Flat,B_3,1,0,1,0,0
10,stimuli/tones/FlatIEC-30dB.wav,2,188,noResp,NA,B_3,stimuli/Baron6dB/070100.wav,stimuli/Tiger/050102.wav,stimuli/Laker/020102.wav,NA,0,-30dB,Flat,R_1,0,0,1,0,0
10,stimuli/tones/silence.wav,1.25,189,noResp,NA,R_2,stimuli/Baron6dB/070101.wav,stimuli/Arrow/040201.wav,stimuli/Hopper/030001.wav,NA,1,silence,silence,R_2,1,0,0,1,0
10,stimuli/tones/PercTri-24dB.wav,2,190,noResp,NA,G_2,stimuli/Baron6dB/070301.wav,stimuli/Laker/020103.wav,stimuli/Charlie/000101.wav,NA,0,-24dB,PercTri,G_2,1,0,1,0,0
10,stimuli/tones/PercTri-24dB.wav,1.25,191,noResp,NA,W_1,stimuli/Baron6dB/070200.wav,stimuli/Ringo/010302.wav,stimuli/Hopper/030202.wav,NA,0,-24dB,PercTri,W_1,1,0,1,0,0
10,stimuli/tones/silence.wav,0.75,192,noResp,NA,B_4,stimuli/Baron6dB/070003.wav,stimuli/Laker/020202.wav,stimuli/Charlie/000003.wav,NA,1,silence,silence,B_4,1,0,0,1,0
10,stimuli/tones/FlatIEC-33dB.wav,2,193,noResp,NA,R_2,stimuli/Baron6dB/070101.wav,stimuli/Arrow/040302.wav,stimuli/Eagle/060100.wav,NA,0,-33dB,Flat,R_2,1,0,1,0,0
10,stimuli/tones/silence.wav,2,194,noResp,NA,R_1,stimuli/Baron6dB/070100.wav,stimuli/Eagle/060303.wav,stimuli/Charlie/000301.wav,NA,1,silence,silence,R_1,1,0,0,1,0
10,stimuli/tones/silence.wav,1.25,195,noResp,NA,B_1,stimuli/Baron6dB/070000.wav,stimuli/Charlie/000200.wav,stimuli/Eagle/060203.wav,NA,1,silence,silence,B_1,1,0,0,1,0
10,stimuli/tones/silence.wav,2,196,noResp,NA,B_3,stimuli/Baron6dB/070002.wav,stimuli/Charlie/000302.wav,stimuli/Laker/020302.wav,NA,1,silence,silence,B_3,1,0,0,1,0
10,stimuli/tones/silence.wav,2,197,noResp,NA,B_2,stimuli/Baron6dB/070001.wav,stimuli/Charlie/000001.wav,stimuli/Arrow/040102.wav,NA,1,silence,silence,B_2,1,0,0,1,0
10,stimuli/tones/silence.wav,1.25,198,noResp,NA,R_3,stimuli/Baron6dB/070102.wav,stimuli/Hopper/030202.wav,stimuli/Eagle/060303.wav,NA,1,silence,silence,R_3,1,0,0,1,0
10,stimuli/tones/silence.wav,2,199,noResp,NA,W_1,stimuli/Baron6dB/070200.wav,stimuli/Tiger/050302.wav,stimuli/Ringo/010203.wav,NA,1,silence,silence,W_1,1,0,0,1,0
10,stimuli/tones/FlatIEC-33dB.wav,1.25,200,noResp,NA,W_4,stimuli/Baron6dB/070203.wav,stimuli/Charlie/000003.wav,stimuli/Eagle/060201.wav,NA,0,-33dB,Flat,W_4,1,0,1,0,0
10,stimuli/tones/FlatIEC-21dB.wav,0.75,201,noResp,NA,W_2,stimuli/Baron6dB/070201.wav,stimuli/Eagle/060000.wav,stimuli/Arrow/040101.wav,NA,0,-21dB,Flat,W_2,1,0,1,0,0
10,stimuli/tones/silence.wav,0.75,202,noResp,NA,W_3,stimuli/Baron6dB/070202.wav,stimuli/Arrow/040202.wav,stimuli/Hopper/030201.wav,NA,1,silence,silence,W_3,1,0,0,1,0
10,stimuli/tones/FlatIEC-27dB.wav,2,203,noResp,NA,B_1,stimuli/Baron6dB/070300.wav,stimuli/Hopper/030201.wav,stimuli/Tiger/050302.wav,NA,0,-27dB,Flat,G_1,0,0,1,0,0
10,stimuli/tones/FlatIEC-21dB.wav,2,204,noResp,NA,G_4,stimuli/Baron6dB/070303.wav,stimuli/Charlie/000201.wav,stimuli/Hopper/030000.wav,NA,0,-21dB,Flat,G_4,1,0,1,0,0
10,stimuli/tones/FlatIEC-30dB.wav,1.25,205,noResp,NA,G_3,stimuli/Baron6dB/070302.wav,stimuli/Ringo/010201.wav,stimuli/Hopper/030301.wav,NA,0,-30dB,Flat,G_3,1,0,1,0,0
10,stimuli/tones/silence.wav,2,206,noResp,NA,G_2,stimuli/Baron6dB/070301.wav,stimuli/Laker/020003.wav,stimuli/Ringo/010002.wav,NA,1,silence,silence,G_2,1,0,0,1,0
10,stimuli/tones/silence.wav,2,207,noResp,NA,R_4,stimuli/Baron6dB/070103.wav,stimuli/Laker/020101.wav,stimuli/Arrow/040202.wav,NA,1,silence,silence,R_4,1,0,0,1,0
10,stimuli/tones/silence.wav,2,208,noResp,NA,B_1,stimuli/Baron6dB/070302.wav,stimuli/Charlie/000301.wav,stimuli/Laker/020201.wav,NA,1,silence,silence,G_3,0,0,0,1,0
10,stimuli/tones/PercTri-18dB.wav,1.25,209,noResp,NA,B_4,stimuli/Baron6dB/070003.wav,stimuli/Laker/020201.wav,stimuli/Tiger/050200.wav,NA,0,-18dB,PercTri,B_4,1,0,1,0,0
10,stimuli/tones/silence.wav,1.25,210,noResp,NA,W_2,stimuli/Baron6dB/070201.wav,stimuli/Hopper/030300.wav,stimuli/Ringo/010302.wav,NA,1,silence,silence,W_2,1,0,0,1,0
10,stimuli/tones/silence.wav,1.25,211,noResp,NA,B_1,stimuli/Baron6dB/070000.wav,stimuli/Arrow/040100.wav,stimuli/Laker/020103.wav,NA,1,silence,silence,B_1,1,0,0,1,0
10,stimuli/tones/FlatIEC-27dB.wav,0.75,212,noResp,NA,G_1,stimuli/Baron6dB/070301.wav,stimuli/Laker/020100.wav,stimuli/Ringo/010300.wav,NA,0,-27dB,Flat,G_2,0,0,1,0,0
10,stimuli/tones/PercTri-18dB.wav,1.25,213,noResp,NA,W_3,stimuli/Baron6dB/070202.wav,stimuli/Hopper/030003.wav,stimuli/Arrow/040100.wav,NA,0,-18dB,PercTri,W_3,1,0,1,0,0
10,stimuli/tones/PercTri-21dB.wav,2,214,noResp,NA,G_1,stimuli/Baron6dB/070300.wav,stimuli/Ringo/010300.wav,stimuli/Hopper/030102.wav,NA,0,-21dB,PercTri,G_1,1,0,1,0,0
10,stimuli/tones/FlatIEC-18dB.wav,1.25,215,noResp,NA,W_1,stimuli/Baron6dB/070200.wav,stimuli/Laker/020203.wav,stimuli/Charlie/000103.wav,NA,0,-18dB,Flat,W_1,1,0,1,0,0
11,stimuli/tones/silence.wav,1.25,0,noResp,NA,B_2,stimuli/Baron6dB/070300.wav,stimuli/Ringo/010201.wav,stimuli/Hopper/030102.wav,NA,1,silence,silence,G_1,0,0,0,1,0
11,stimuli/tones/PercTri-18dB.wav,0.75,1,space,1.4087,W_4,stimuli/Baron6dB/070103.wav,stimuli/Eagle/060003.wav,stimuli/Arrow/040200.wav,NA,1,-18dB,PercTri,R_4,0,1,0,0,0
11,stimuli/tones/FlatIEC-18dB.wav,2,2,space,2.556,B_1,stimuli/Baron6dB/070000.wav,stimuli/Arrow/040100.wav,stimuli/Hopper/030101.wav,NA,1,-18dB,Flat,B_1,1,1,0,0,0
11,stimuli/tones/FlatIEC-18dB.wav,1.25,3,space,2.5703,W_2,stimuli/Baron6dB/070201.wav,stimuli/Arrow/040102.wav,stimuli/Arrow/040300.wav,NA,1,-18dB,Flat,W_2,1,1,0,0,0
11,stimuli/tones/silence.wav,1.25,4,noResp,NA,G_2,stimuli/Baron6dB/070302.wav,stimuli/Laker/020301.wav,stimuli/Eagle/060201.wav,NA,1,silence,silence,G_3,0,0,0,1,0
11,stimuli/tones/silence.wav,0.75,5,noResp,NA,B_2,stimuli/Baron6dB/070001.wav,stimuli/Hopper/030203.wav,stimuli/Ringo/010003.wav,NA,1,silence,silence,B_2,1,0,0,1,0
11,stimuli/tones/silence.wav,2,6,noResp,NA,W_3,stimuli/Baron6dB/070202.wav,stimuli/Tiger/050100.wav,stimuli/Laker/020100.wav,NA,1,silence,silence,W_3,1,0,0,1,0
11,stimuli/tones/silence.wav,0.75,7,noResp,NA,B_2,stimuli/Baron6dB/070101.wav,stimuli/Arrow/040002.wav,stimuli/Laker/020002.wav,NA,1,silence,silence,R_2,0,0,0,1,0
11,stimuli/tones/silence.wav,2,8,noResp,NA,B_3,stimuli/Baron6dB/070002.wav,stimuli/Laker/020201.wav,stimuli/Charlie/000000.wav,NA,1,silence,silence,B_3,1,0,0,1,0
11,stimuli/tones/PercTri-30dB.wav,0.75,9,space,1.1814,B_4,stimuli/Baron6dB/070303.wav,stimuli/Arrow/040300.wav,stimuli/Charlie/000301.wav,NA,1,-30dB,PercTri,G_4,0,1,0,0,0
11,stimuli/tones/silence.wav,2,10,space,3.5948,W_3,stimuli/Baron6dB/070102.wav,stimuli/Arrow/040302.wav,stimuli/Ringo/010203.wav,NA,0,silence,silence,R_3,0,0,0,0,1
11,stimuli/tones/FlatIEC-33dB.wav,0.75,11,noResp,NA,B_4,stimuli/Baron6dB/070003.wav,stimuli/Ringo/010103.wav,stimuli/Tiger/050201.wav,NA,0,-33dB,Flat,B_4,1,0,1,0,0
11,stimuli/tones/silence.wav,1.25,12,noResp,NA,R_1,stimuli/Baron6dB/070100.wav,stimuli/Charlie/000102.wav,stimuli/Eagle/060103.wav,NA,1,silence,silence,R_1,1,0,0,1,0
11,stimuli/tones/silence.wav,1.25,13,noResp,NA,W_4,stimuli/Baron6dB/070203.wav,stimuli/Tiger/050000.wav,stimuli/Tiger/050301.wav,NA,1,silence,silence,W_4,1,0,0,1,0
11,stimuli/tones/silence.wav,2,14,noResp,NA,W_1,stimuli/Baron6dB/070200.wav,stimuli/Ringo/010100.wav,stimuli/Eagle/060202.wav,NA,1,silence,silence,W_1,1,0,0,1,0
11,stimuli/tones/silence.wav,1.25,15,noResp,NA,G_2,stimuli/Baron6dB/070301.wav,stimuli/Tiger/050001.wav,stimuli/Charlie/000003.wav,NA,1,silence,silence,G_2,1,0,0,1,0
11,stimuli/tones/PercTri-18dB.wav,1.25,16,space,1.8088,W_3,stimuli/Baron6dB/070202.wav,stimuli/Charlie/000002.wav,stimuli/Ringo/010101.wav,NA,1,-18dB,PercTri,W_3,1,1,0,0,0
11,stimuli/tones/PercTri-18dB.wav,2,17,noResp,NA,W_1,stimuli/Baron6dB/070100.wav,stimuli/Tiger/050300.wav,stimuli/Laker/020101.wav,NA,0,-18dB,PercTri,R_1,0,0,1,0,0
11,stimuli/tones/PercTri-27dB.wav,0.75,18,space,0.0936,R_3,stimuli/Baron6dB/070102.wav,stimuli/Laker/020000.wav,stimuli/Hopper/030201.wav,NA,1,-27dB,PercTri,R_3,1,1,0,0,0
11,stimuli/tones/silence.wav,0.75,19,noResp,NA,B_3,stimuli/Baron6dB/070002.wav,stimuli/Ringo/010202.wav,stimuli/Tiger/050102.wav,NA,1,silence,silence,B_3,1,0,0,1,0
11,stimuli/tones/silence.wav,2,20,noResp,NA,W_4,stimuli/Baron6dB/070003.wav,stimuli/Ringo/010000.wav,stimuli/Tiger/050302.wav,NA,1,silence,silence,B_4,0,0,0,1,0
11,stimuli/tones/FlatIEC-30dB.wav,0.75,21,noResp,NA,G_2,stimuli/Baron6dB/070301.wav,stimuli/Charlie/000003.wav,stimuli/Ringo/010202.wav,NA,0,-30dB,Flat,G_2,1,0,1,0,0
11,stimuli/tones/silence.wav,2,22,noResp,NA,W_1,stimuli/Baron6dB/070200.wav,stimuli/Ringo/010001.wav,stimuli/Ringo/010103.wav,NA,1,silence,silence,W_1,1,0,0,1,0
11,stimuli/tones/silence.wav,2,23,noResp,NA,R_4,stimuli/Baron6dB/070303.wav,stimuli/Hopper/030100.wav,stimuli/Tiger/050000.wav,NA,1,silence,silence,G_4,0,0,0,1,0
11,stimuli/tones/PercTri-18dB.wav,2,24,space,2.4999,W_4,stimuli/Baron6dB/070203.wav,stimuli/Eagle/060303.wav,stimuli/Hopper/030203.wav,NA,1,-18dB,PercTri,W_4,1,1,0,0,0
11,stimuli/tones/PercTri-18dB.wav,1.25,25,noResp,NA,W_4,stimuli/Baron6dB/070103.wav,stimuli/Charlie/000302.wav,stimuli/Laker/020203.wav,NA,0,-18dB,PercTri,R_4,0,0,1,0,0
11,stimuli/tones/silence.wav,1.25,26,space,0.1996,B_1,stimuli/Baron6dB/070000.wav,stimuli/Hopper/030103.wav,stimuli/Laker/020102.wav,NA,0,silence,silence,B_1,1,0,0,0,1
11,stimuli/tones/silence.wav,2,27,noResp,NA,W_2,stimuli/Baron6dB/070201.wav,stimuli/Ringo/010300.wav,stimuli/Laker/020001.wav,NA,1,silence,silence,W_2,1,0,0,1,0
11,stimuli/tones/silence.wav,0.75,28,noResp,NA,G_3,stimuli/Baron6dB/070302.wav,stimuli/Eagle/060203.wav,stimuli/Hopper/030303.wav,NA,1,silence,silence,G_3,1,0,0,1,0
11,stimuli/tones/FlatIEC-33dB.wav,0.75,29,noResp,NA,B_2,stimuli/Baron6dB/070001.wav,stimuli/Tiger/050201.wav,stimuli/Eagle/060301.wav,NA,0,-33dB,Flat,B_2,1,0,1,0,0
11,stimuli/tones/silence.wav,1.25,30,noResp,NA,B_1,stimuli/Baron6dB/070300.wav,stimuli/Charlie/000200.wav,stimuli/Arrow/040201.wav,NA,1,silence,silence,G_1,0,0,0,1,0
11,stimuli/tones/silence.wav,2,31,noResp,NA,R_2,stimuli/Baron6dB/070101.wav,stimuli/Hopper/030001.wav,stimuli/Arrow/040000.wav,NA,1,silence,silence,R_2,1,0,0,1,0
11,stimuli/tones/silence.wav,0.75,32,noResp,NA,W_3,stimuli/Baron6dB/070202.wav,stimuli/Charlie/000203.wav,stimuli/Tiger/050200.wav,NA,1,silence,silence,W_3,1,0,0,1,0
11,stimuli/tones/silence.wav,0.75,33,noResp,NA,W_1,stimuli/Baron6dB/070200.wav,stimuli/Hopper/030200.wav,stimuli/Arrow/040301.wav,NA,1,silence,silence,W_1,1,0,0,1,0
11,stimuli/tones/silence.wav,0.75,34,noResp,NA,G_3,stimuli/Baron6dB/070102.wav,stimuli/Hopper/030201.wav,stimuli/Eagle/060101.wav,NA,1,silence,silence,R_3,0,0,0,1,0
11,stimuli/tones/PercTri-30dB.wav,1.25,35,space,2.6281,G_3,stimuli/Baron6dB/070302.wav,stimuli/Hopper/030303.wav,stimuli/Ringo/010100.wav,NA,1,-30dB,PercTri,G_3,1,1,0,0,0
11,stimuli/tones/silence.wav,0.75,36,noResp,NA,R_1,stimuli/Baron6dB/070100.wav,stimuli/Charlie/000001.wav,stimuli/Laker/020303.wav,NA,1,silence,silence,R_1,1,0,0,1,0
11,stimuli/tones/FlatIEC-30dB.wav,1.25,37,noResp,NA,B_3,stimuli/Baron6dB/070002.wav,stimuli/Charlie/000300.wav,stimuli/Charlie/000303.wav,NA,0,-30dB,Flat,B_3,1,0,1,0,0
11,stimuli/tones/silence.wav,1.25,38,noResp,NA,B_2,stimuli/Baron6dB/070001.wav,stimuli/Arrow/040201.wav,stimuli/Eagle/060002.wav,NA,1,silence,silence,B_2,1,0,0,1,0
11,stimuli/tones/PercTri-24dB.wav,1.25,39,space,1.7324,B_1,stimuli/Baron6dB/070000.wav,stimuli/Arrow/040000.wav,stimuli/Arrow/040100.wav,NA,1,-24dB,PercTri,B_1,1,1,0,0,0
11,stimuli/tones/silence.wav,1.25,40,noResp,NA,W_2,stimuli/Baron6dB/070201.wav,stimuli/Ringo/010203.wav,stimuli/Charlie/000002.wav,NA,1,silence,silence,W_2,1,0,0,1,0
11,stimuli/tones/PercTri-27dB.wav,0.75,41,space,1.3779,W_1,stimuli/Baron6dB/070300.wav,stimuli/Eagle/060300.wav,stimuli/Eagle/060302.wav,NA,1,-27dB,PercTri,G_1,0,1,0,0,0
11,stimuli/tones/FlatIEC-30dB.wav,2,42,noResp,NA,B_4,stimuli/Baron6dB/070003.wav,stimuli/Hopper/030102.wav,stimuli/Arrow/040102.wav,NA,0,-30dB,Flat,B_4,1,0,1,0,0
11,stimuli/tones/silence.wav,0.75,43,space,3.4603,R_4,stimuli/Baron6dB/070203.wav,stimuli/Hopper/030000.wav,stimuli/Arrow/040001.wav,NA,0,silence,silence,W_4,0,0,0,0,1
11,stimuli/tones/silence.wav,0.75,44,noResp,NA,B_4,stimuli/Baron6dB/070303.wav,stimuli/Tiger/050003.wav,stimuli/Eagle/060000.wav,NA,1,silence,silence,G_4,0,0,0,1,0
11,stimuli/tones/PercTri-21dB.wav,2,45,space,2.5525,R_2,stimuli/Baron6dB/070101.wav,stimuli/Ringo/010002.wav,stimuli/Tiger/050303.wav,NA,1,-21dB,PercTri,R_2,1,1,0,0,0
11,stimuli/tones/silence.wav,2,46,noResp,NA,G_2,stimuli/Baron6dB/070301.wav,stimuli/Ringo/010101.wav,stimuli/Arrow/040303.wav,NA,1,silence,silence,G_2,1,0,0,1,0
11,stimuli/tones/PercTri-24dB.wav,0.75,47,space,1.6073,G_4,stimuli/Baron6dB/070103.wav,stimuli/Laker/020101.wav,stimuli/Tiger/050300.wav,NA,1,-24dB,PercTri,R_4,0,1,0,0,0
11,stimuli/tones/FlatIEC-24dB.wav,2,48,noResp,NA,G_2,stimuli/Baron6dB/070301.wav,stimuli/Laker/020003.wav,stimuli/Hopper/030100.wav,NA,0,-24dB,Flat,G_2,1,0,1,0,0
11,stimuli/tones/silence.wav,0.75,49,space,0.1101,R_4,stimuli/Baron6dB/070103.wav,stimuli/Eagle/060001.wav,stimuli/Ringo/010200.wav,NA,0,silence,silence,R_4,1,0,0,0,1
11,stimuli/tones/FlatIEC-33dB.wav,1.25,50,noResp,NA,W_3,stimuli/Baron6dB/070102.wav,stimuli/Tiger/050203.wav,stimuli/Ringo/010002.wav,NA,0,-33dB,Flat,R_3,0,0,1,0,0
11,stimuli/tones/silence.wav,2,51,noResp,NA,B_4,stimuli/Baron6dB/070003.wav,stimuli/Ringo/010302.wav,stimuli/Laker/020201.wav,NA,1,silence,silence,B_4,1,0,0,1,0
11,stimuli/tones/PercTri-24dB.wav,2,52,noResp,NA,W_1,stimuli/Baron6dB/070300.wav,stimuli/Charlie/000103.wav,stimuli/Hopper/030202.wav,NA,0,-24dB,PercTri,G_1,0,0,1,0,0
11,stimuli/tones/silence.wav,0.75,53,space,0.4157,W_2,stimuli/Baron6dB/070201.wav,stimuli/Hopper/030302.wav,stimuli/Ringo/010303.wav,NA,0,silence,silence,W_2,1,0,0,0,1
11,stimuli/tones/FlatIEC-24dB.wav,1.25,54,noResp,NA,R_1,stimuli/Baron6dB/070200.wav,stimuli/Laker/020100.wav,stimuli/Laker/020302.wav,NA,0,-24dB,Flat,W_1,0,0,1,0,0
11,stimuli/tones/silence.wav,2,55,space,0.5326,R_4,stimuli/Baron6dB/070203.wav,stimuli/Arrow/040301.wav,stimuli/Hopper/030002.wav,NA,0,silence,silence,W_4,0,0,0,0,1
11,stimuli/tones/FlatIEC-24dB.wav,0.75,56,noResp,NA,B_3,stimuli/Baron6dB/070002.wav,stimuli/Laker/020200.wav,stimuli/Arrow/040103.wav,NA,0,-24dB,Flat,B_3,1,0,1,0,0
11,stimuli/tones/FlatIEC-27dB.wav,2,57,space,3.0699,W_3,stimuli/Baron6dB/070302.wav,stimuli/Charlie/000101.wav,stimuli/Charlie/000201.wav,NA,1,-27dB,Flat,G_3,0,1,0,0,0
11,stimuli/tones/silence.wav,1.25,58,noResp,NA,R_2,stimuli/Baron6dB/070101.wav,stimuli/Laker/020103.wav,stimuli/Ringo/010201.wav,NA,1,silence,silence,R_2,1,0,0,1,0
11,stimuli/tones/silence.wav,1.25,59,noResp,NA,W_3,stimuli/Baron6dB/070202.wav,stimuli/Ringo/010303.wav,stimuli/Ringo/010301.wav,NA,1,silence,silence,W_3,1,0,0,1,0
11,stimuli/tones/PercTri-24dB.wav,1.25,60,space,1.8621,W_1,stimuli/Baron6dB/070100.wav,stimuli/Eagle/060301.wav,stimuli/Laker/020103.wav,NA,1,-24dB,PercTri,R_1,0,1,0,0,0
11,stimuli/tones/silence.wav,0.75,61,noResp,NA,B_2,stimuli/Baron6dB/070001.wav,stimuli/Eagle/060302.wav,stimuli/Charlie/000101.wav,NA,1,silence,silence,B_2,1,0,0,1,0
11,stimuli/tones/PercTri-21dB.wav,2,62,noResp,NA,W_1,stimuli/Baron6dB/070000.wav,stimuli/Laker/020001.wav,stimuli/Tiger/050103.wav,NA,0,-21dB,PercTri,B_1,0,0,1,0,0
11,stimuli/tones/silence.wav,1.25,63,noResp,NA,B_1,stimuli/Baron6dB/070303.wav,stimuli/Laker/020302.wav,stimuli/Laker/020000.wav,NA,1,silence,silence,G_4,0,0,0,1,0
11,stimuli/tones/silence.wav,0.75,64,noResp,NA,W_2,stimuli/Baron6dB/070201.wav,stimuli/Laker/020102.wav,stimuli/Tiger/050001.wav,NA,1,silence,silence,W_2,1,0,0,1,0
11,stimuli/tones/PercTri-30dB.wav,1.25,65,space,3.6725,B_4,stimuli/Baron6dB/070203.wav,stimuli/Arrow/040200.wav,stimuli/Eagle/060100.wav,NA,1,-30dB,PercTri,W_4,0,1,0,0,0
11,stimuli/tones/FlatIEC-33dB.wav,2,66,noResp,NA,R_1,stimuli/Baron6dB/070302.wav,stimuli/Charlie/000301.wav,stimuli/Hopper/030003.wav,NA,0,-33dB,Flat,G_3,0,0,1,0,0
11,stimuli/tones/silence.wav,0.75,67,space,0.2067,W_1,stimuli/Baron6dB/070301.wav,stimuli/Arrow/040303.wav,stimuli/Charlie/000300.wav,NA,0,silence,silence,G_2,0,0,0,0,1
11,stimuli/tones/silence.wav,2,68,noResp,NA,W_2,stimuli/Baron6dB/070101.wav,stimuli/Eagle/060201.wav,stimuli/Laker/020301.wav,NA,1,silence,silence,R_2,0,0,0,1,0
11,stimuli/tones/PercTri-33dB.wav,1.25,69,space,2.1492,W_4,stimuli/Baron6dB/070303.wav,stimuli/Eagle/060000.wav,stimuli/Eagle/060303.wav,NA,1,-33dB,PercTri,G_4,0,1,0,0,0
11,stimuli/tones/FlatIEC-21dB.wav,0.75,70,space,1.8337,G_4,stimuli/Baron6dB/070003.wav,stimuli/Charlie/000100.wav,stimuli/Charlie/000200.wav,NA,1,-21dB,Flat,B_4,0,1,0,0,0
11,stimuli/tones/silence.wav,0.75,71,noResp,NA,B_1,stimuli/Baron6dB/070000.wav,stimuli/Tiger/050303.wav,stimuli/Eagle/060003.wav,NA,1,silence,silence,B_1,1,0,0,1,0
11,stimuli/tones/PercTri-18dB.wav,0.75,72,space,2.0392,R_4,stimuli/Baron6dB/070300.wav,stimuli/Hopper/030202.wav,stimuli/Charlie/000203.wav,NA,1,-18dB,PercTri,G_1,0,1,0,0,0
11,stimuli/tones/silence.wav,0.75,73,noResp,NA,W_3,stimuli/Baron6dB/070202.wav,stimuli/Arrow/040103.wav,stimuli/Hopper/030000.wav,NA,1,silence,silence,W_3,1,0,0,1,0
11,stimuli/tones/silence.wav,2,74,noResp,NA,G_3,stimuli/Baron6dB/070102.wav,stimuli/Eagle/060100.wav,stimuli/Hopper/030302.wav,NA,1,silence,silence,R_3,0,0,0,1,0
11,stimuli/tones/PercTri-30dB.wav,0.75,75,space,1.4611,B_3,stimuli/Baron6dB/070002.wav,stimuli/Arrow/040101.wav,stimuli/Laker/020300.wav,NA,1,-30dB,PercTri,B_3,1,1,0,0,0
11,stimuli/tones/silence.wav,1.25,76,noResp,NA,B_2,stimuli/Baron6dB/070001.wav,stimuli/Tiger/050202.wav,stimuli/Charlie/000202.wav,NA,1,silence,silence,B_2,1,0,0,1,0
11,stimuli/tones/silence.wav,0.75,77,noResp,NA,W_1,stimuli/Baron6dB/070103.wav,stimuli/Tiger/050103.wav,stimuli/Charlie/000102.wav,NA,1,silence,silence,R_4,0,0,0,1,0
11,stimuli/tones/FlatIEC-30dB.wav,2,78,space,3.7574,W_1,stimuli/Baron6dB/070200.wav,stimuli/Hopper/030300.wav,stimuli/Arrow/040202.wav,NA,1,-30dB,Flat,W_1,1,1,0,0,0
11,stimuli/tones/FlatIEC-33dB.wav,2,79,noResp,NA,W_3,stimuli/Baron6dB/070100.wav,stimuli/Eagle/060202.wav,stimuli/Eagle/060102.wav,NA,0,-33dB,Flat,R_1,0,0,1,0,0
11,stimuli/tones/silence.wav,1.25,80,noResp,NA,W_2,stimuli/Baron6dB/070300.wav,stimuli/Laker/020303.wav,stimuli/Charlie/000100.wav,NA,1,silence,silence,G_1,0,0,0,1,0
11,stimuli/tones/silence.wav,2,81,noResp,NA,B_2,stimuli/Baron6dB/070001.wav,stimuli/Charlie/000000.wav,stimuli/Arrow/040203.wav,NA,1,silence,silence,B_2,1,0,0,1,0
11,stimuli/tones/FlatIEC-18dB.wav,1.25,82,noResp,NA,R_2,stimuli/Baron6dB/070101.wav,stimuli/Tiger/050301.wav,stimuli/Hopper/030001.wav,NA,0,-18dB,Flat,R_2,1,0,1,0,0
11,stimuli/tones/silence.wav,2,83,noResp,NA,W_3,stimuli/Baron6dB/070202.wav,stimuli/Hopper/030101.wav,stimuli/Tiger/050002.wav,NA,1,silence,silence,W_3,1,0,0,1,0
11,stimuli/tones/silence.wav,1.25,84,noResp,NA,W_2,stimuli/Baron6dB/070201.wav,stimuli/Eagle/060103.wav,stimuli/Arrow/040003.wav,NA,1,silence,silence,W_2,1,0,0,1,0
11,stimuli/tones/silence.wav,2,85,noResp,NA,G_3,stimuli/Baron6dB/070302.wav,stimuli/Charlie/000202.wav,stimuli/Eagle/060001.wav,NA,1,silence,silence,G_3,1,0,0,1,0
11,stimuli/tones/PercTri-27dB.wav,2,86,space,2.7396,W_4,stimuli/Baron6dB/070103.wav,stimuli/Laker/020203.wav,stimuli/Eagle/060203.wav,NA,1,-27dB,PercTri,R_4,0,1,0,0,0
11,stimuli/tones/silence.wav,0.75,87,noResp,NA,W_3,stimuli/Baron6dB/070102.wav,stimuli/Arrow/040202.wav,stimuli/Arrow/040101.wav,NA,1,silence,silence,R_3,0,0,0,1,0
11,stimuli/tones/PercTri-30dB.wav,2,88,space,2.816,W_1,stimuli/Baron6dB/070100.wav,stimuli/Laker/020202.wav,stimuli/Arrow/040002.wav,NA,1,-30dB,PercTri,R_1,0,1,0,0,0
11,stimuli/tones/PercTri-24dB.wav,2,89,noResp,NA,B_3,stimuli/Baron6dB/070002.wav,stimuli/Ringo/010200.wav,stimuli/Hopper/030301.wav,NA,0,-24dB,PercTri,B_3,1,0,1,0,0
11,stimuli/tones/FlatIEC-18dB.wav,2,90,noResp,NA,B_1,stimuli/Baron6dB/070000.wav,stimuli/Ringo/010301.wav,stimuli/Ringo/010001.wav,NA,0,-18dB,Flat,B_1,1,0,1,0,0
11,stimuli/tones/FlatIEC-21dB.wav,0.75,91,space,0.378,B_4,stimuli/Baron6dB/070303.wav,stimuli/Eagle/060200.wav,stimuli/Hopper/030300.wav,NA,1,-21dB,Flat,G_4,0,1,0,0,0
11,stimuli/tones/FlatIEC-24dB.wav,0.75,92,noResp,NA,G_2,stimuli/Baron6dB/070301.wav,stimuli/Tiger/050200.wav,stimuli/Eagle/060300.wav,NA,0,-24dB,Flat,G_2,1,0,1,0,0
11,stimuli/tones/silence.wav,2,93,noResp,NA,R_1,stimuli/Baron6dB/070203.wav,stimuli/Arrow/040001.wav,stimuli/Laker/020202.wav,NA,1,silence,silence,W_4,0,0,0,1,0
11,stimuli/tones/silence.wav,0.75,94,noResp,NA,W_1,stimuli/Baron6dB/070200.wav,stimuli/Ringo/010102.wav,stimuli/Ringo/010300.wav,NA,1,silence,silence,W_1,1,0,0,1,0
11,stimuli/tones/PercTri-27dB.wav,0.75,95,space,1.851,B_4,stimuli/Baron6dB/070003.wav,stimuli/Laker/020300.wav,stimuli/Ringo/010102.wav,NA,1,-27dB,PercTri,B_4,1,1,0,0,0
11,stimuli/tones/FlatIEC-30dB.wav,0.75,96,noResp,NA,W_4,stimuli/Baron6dB/070203.wav,stimuli/Hopper/030002.wav,stimuli/Tiger/050003.wav,NA,0,-30dB,Flat,W_4,1,0,1,0,0
11,stimuli/tones/FlatIEC-21dB.wav,1.25,97,noResp,NA,B_2,stimuli/Baron6dB/070001.wav,stimuli/Eagle/060101.wav,stimuli/Charlie/000103.wav,NA,0,-21dB,Flat,B_2,1,0,1,0,0
11,stimuli/tones/silence.wav,1.25,98,space,0.5642,W_2,stimuli/Baron6dB/070201.wav,stimuli/Tiger/050102.wav,stimuli/Hopper/030200.wav,NA,0,silence,silence,W_2,1,0,0,0,1
11,stimuli/tones/FlatIEC-30dB.wav,1.25,99,noResp,NA,B_4,stimuli/Baron6dB/070003.wav,stimuli/Eagle/060102.wav,stimuli/Hopper/030103.wav,NA,0,-30dB,Flat,B_4,1,0,1,0,0
11,stimuli/tones/PercTri-33dB.wav,2,100,space,2.7312,R_2,stimuli/Baron6dB/070102.wav,stimuli/Tiger/050101.wav,stimuli/Eagle/060200.wav,NA,1,-33dB,PercTri,R_3,0,1,0,0,0
11,stimuli/tones/FlatIEC-30dB.wav,1.25,101,noResp,NA,W_1,stimuli/Baron6dB/070200.wav,stimuli/Hopper/030301.wav,stimuli/Charlie/000302.wav,NA,0,-30dB,Flat,W_1,1,0,1,0,0
11,stimuli/tones/FlatIEC-30dB.wav,2,102,noResp,NA,W_3,stimuli/Baron6dB/070202.wav,stimuli/Hopper/030003.wav,stimuli/Tiger/050203.wav,NA,0,-30dB,Flat,W_3,1,0,1,0,0
11,stimuli/tones/silence.wav,2,103,noResp,NA,R_4,stimuli/Baron6dB/070002.wav,stimuli/Eagle/060002.wav,stimuli/Laker/020003.wav,NA,1,silence,silence,B_3,0,0,0,1,0
11,stimuli/tones/PercTri-21dB.wav,2,104,noResp,NA,G_2,stimuli/Baron6dB/070301.wav,stimuli/Laker/020002.wav,stimuli/Laker/020200.wav,NA,0,-21dB,PercTri,G_2,1,0,1,0,0
11,stimuli/tones/FlatIEC-18dB.wav,1.25,105,space,0.5875,W_1,stimuli/Baron6dB/070100.wav,stimuli/Arrow/040003.wav,stimuli/Charlie/000001.wav,NA,1,-18dB,Flat,R_1,0,1,0,0,0
11,stimuli/tones/PercTri-24dB.wav,2,106,noResp,NA,G_3,stimuli/Baron6dB/070302.wav,stimuli/Charlie/000201.wav,stimuli/Tiger/050202.wav,NA,0,-24dB,PercTri,G_3,1,0,1,0,0
11,stimuli/tones/silence.wav,1.25,107,space,1.2485,W_1,stimuli/Baron6dB/070101.wav,stimuli/Arrow/040203.wav,stimuli/Tiger/050101.wav,NA,0,silence,silence,R_2,0,0,0,0,1
11,stimuli/tones/silence.wav,0.75,108,noResp,NA,G_1,stimuli/Baron6dB/070300.wav,stimuli/Tiger/050302.wav,stimuli/Ringo/010302.wav,NA,1,silence,silence,G_1,1,0,0,1,0
11,stimuli/tones/PercTri-21dB.wav,1.25,109,space,3.2445,G_4,stimuli/Baron6dB/070303.wav,stimuli/Charlie/000303.wav,stimuli/Ringo/010000.wav,NA,1,-21dB,PercTri,G_4,1,1,0,0,0
11,stimuli/tones/FlatIEC-21dB.wav,2,110,noResp,NA,B_1,stimuli/Baron6dB/070000.wav,stimuli/Tiger/050002.wav,stimuli/Tiger/050100.wav,NA,0,-21dB,Flat,B_1,1,0,1,0,0
11,stimuli/tones/FlatIEC-27dB.wav,0.75,111,noResp,NA,R_4,stimuli/Baron6dB/070103.wav,stimuli/Ringo/010003.wav,stimuli/Arrow/040302.wav,NA,0,-27dB,Flat,R_4,1,0,1,0,0
11,stimuli/tones/silence.wav,1.25,112,noResp,NA,B_1,stimuli/Baron6dB/070000.wav,stimuli/Hopper/030302.wav,stimuli/Ringo/010001.wav,NA,1,silence,silence,B_1,1,0,0,1,0
11,stimuli/tones/FlatIEC-33dB.wav,2,113,noResp,NA,B_4,stimuli/Baron6dB/070003.wav,stimuli/Hopper/030101.wav,stimuli/Eagle/060100.wav,NA,0,-33dB,Flat,B_4,1,0,1,0,0
11,stimuli/tones/FlatIEC-27dB.wav,1.25,114,space,0.5673,W_1,stimuli/Baron6dB/070200.wav,stimuli/Tiger/050103.wav,stimuli/Laker/020103.wav,NA,1,-27dB,Flat,W_1,1,1,0,0,0
11,stimuli/tones/silence.wav,1.25,115,noResp,NA,W_2,stimuli/Baron6dB/070201.wav,stimuli/Ringo/010102.wav,stimuli/Ringo/010301.wav,NA,1,silence,silence,W_2,1,0,0,1,0
11,stimuli/tones/silence.wav,0.75,116,noResp,NA,G_3,stimuli/Baron6dB/070302.wav,stimuli/Laker/020103.wav,stimuli/Charlie/000202.wav,NA,1,silence,silence,G_3,1,0,0,1,0
11,stimuli/tones/silence.wav,0.75,117,noResp,NA,W_1,stimuli/Baron6dB/070203.wav,stimuli/Arrow/040303.wav,stimuli/Laker/020101.wav,NA,1,silence,silence,W_4,0,0,0,1,0
11,stimuli/tones/silence.wav,1.25,118,noResp,NA,G_1,stimuli/Baron6dB/070300.wav,stimuli/Arrow/040102.wav,stimuli/Ringo/010300.wav,NA,1,silence,silence,G_1,1,0,0,1,0
11,stimuli/tones/PercTri-24dB.wav,0.75,119,space,1.3425,B_3,stimuli/Baron6dB/070002.wav,stimuli/Eagle/060201.wav,stimuli/Arrow/040200.wav,NA,1,-24dB,PercTri,B_3,1,1,0,0,0
11,stimuli/tones/silence.wav,2,120,noResp,NA,B_2,stimuli/Baron6dB/070001.wav,stimuli/Charlie/000000.wav,stimuli/Tiger/050301.wav,NA,1,silence,silence,B_2,1,0,0,1,0
11,stimuli/tones/silence.wav,2,121,noResp,NA,R_1,stimuli/Baron6dB/070100.wav,stimuli/Eagle/060000.wav,stimuli/Tiger/050103.wav,NA,1,silence,silence,R_1,1,0,0,1,0
11,stimuli/tones/silence.wav,0.75,122,noResp,NA,G_3,stimuli/Baron6dB/070102.wav,stimuli/Tiger/050302.wav,stimuli/Eagle/060001.wav,NA,1,silence,silence,R_3,0,0,0,1,0
11,stimuli/tones/silence.wav,1.25,123,noResp,NA,R_4,stimuli/Baron6dB/070103.wav,stimuli/Arrow/040101.wav,stimuli/Laker/020303.wav,NA,1,silence,silence,R_4,1,0,0,1,0
11,stimuli/tones/silence.wav,2,124,noResp,NA,W_2,stimuli/Baron6dB/070101.wav,stimuli/Hopper/030203.wav,stimuli/Hopper/030000.wav,NA,1,silence,silence,R_2,0,0,0,1,0
11,stimuli/tones/silence.wav,2,125,noResp,NA,W_3,stimuli/Baron6dB/070202.wav,stimuli/Hopper/030002.wav,stimuli/Laker/020200.wav,NA,1,silence,silence,W_3,1,0,0,1,0
11,stimuli/tones/FlatIEC-27dB.wav,2,126,noResp,NA,G_2,stimuli/Baron6dB/070301.wav,stimuli/Hopper/030001.wav,stimuli/Hopper/030001.wav,NA,0,-27dB,Flat,G_2,1,0,1,0,0
11,stimuli/tones/silence.wav,0.75,127,noResp,NA,G_4,stimuli/Baron6dB/070303.wav,stimuli/Tiger/050202.wav,stimuli/Hopper/030202.wav,NA,1,silence,silence,G_4,1,0,0,1,0
11,stimuli/tones/FlatIEC-21dB.wav,1.25,128,noResp,NA,B_4,stimuli/Baron6dB/070002.wav,stimuli/Eagle/060002.wav,stimuli/Charlie/000101.wav,NA,0,-21dB,Flat,B_3,0,0,1,0,0
11,stimuli/tones/PercTri-33dB.wav,2,129,noResp,NA,R_3,stimuli/Baron6dB/070101.wav,stimuli/Laker/020102.wav,stimuli/Eagle/060002.wav,NA,0,-33dB,PercTri,R_2,0,0,1,0,0
11,stimuli/tones/silence.wav,2,130,space,0.1533,G_3,stimuli/Baron6dB/070302.wav,stimuli/Tiger/050002.wav,stimuli/Ringo/010202.wav,NA,0,silence,silence,G_3,1,0,0,0,1
11,stimuli/tones/silence.wav,1.25,131,noResp,NA,R_3,stimuli/Baron6dB/070102.wav,stimuli/Charlie/000102.wav,stimuli/Laker/020300.wav,NA,1,silence,silence,R_3,1,0,0,1,0
11,stimuli/tones/FlatIEC-24dB.wav,0.75,132,noResp,NA,G_2,stimuli/Baron6dB/070301.wav,stimuli/Hopper/030300.wav,stimuli/Laker/020002.wav,NA,0,-24dB,Flat,G_2,1,0,1,0,0
11,stimuli/tones/PercTri-33dB.wav,0.75,133,space,1.6759,B_2,stimuli/Baron6dB/070001.wav,stimuli/Charlie/000100.wav,stimuli/Laker/020302.wav,NA,1,-33dB,PercTri,B_2,1,1,0,0,0
11,stimuli/tones/FlatIEC-18dB.wav,0.75,134,noResp,NA,G_1,stimuli/Baron6dB/070100.wav,stimuli/Hopper/030103.wav,stimuli/Tiger/050300.wav,NA,0,-18dB,Flat,R_1,0,0,1,0,0
11,stimuli/tones/PercTri-33dB.wav,0.75,135,noResp,NA,W_2,stimuli/Baron6dB/070201.wav,stimuli/Arrow/040000.wav,stimuli/Tiger/050202.wav,NA,0,-33dB,PercTri,W_2,1,0,1,0,0
11,stimuli/tones/silence.wav,0.75,136,space,0.7425,B_4,stimuli/Baron6dB/070003.wav,stimuli/Hopper/030200.wav,stimuli/Charlie/000302.wav,NA,0,silence,silence,B_4,1,0,0,0,1
11,stimuli/tones/PercTri-27dB.wav,1.25,137,space,4.183,W_4,stimuli/Baron6dB/070103.wav,stimuli/Arrow/040001.wav,stimuli/Ringo/010000.wav,NA,1,-27dB,PercTri,R_4,0,1,0,0,0
11,stimuli/tones/FlatIEC-24dB.wav,1.25,138,noResp,NA,W_3,stimuli/Baron6dB/070202.wav,stimuli/Ringo/010303.wav,stimuli/Eagle/060303.wav,NA,0,-24dB,Flat,W_3,1,0,1,0,0
11,stimuli/tones/silence.wav,0.75,139,noResp,NA,G_4,stimuli/Baron6dB/070303.wav,stimuli/Laker/020201.wav,stimuli/Laker/020003.wav,NA,1,silence,silence,G_4,1,0,0,1,0
11,stimuli/tones/silence.wav,1.25,140,noResp,NA,W_1,stimuli/Baron6dB/070200.wav,stimuli/Eagle/060102.wav,stimuli/Tiger/050200.wav,NA,1,silence,silence,W_1,1,0,0,1,0
11,stimuli/tones/FlatIEC-21dB.wav,0.75,141,noResp,NA,B_1,stimuli/Baron6dB/070000.wav,stimuli/Eagle/060103.wav,stimuli/Ringo/010201.wav,NA,0,-21dB,Flat,B_1,1,0,1,0,0
11,stimuli/tones/silence.wav,1.25,142,noResp,NA,G_1,stimuli/Baron6dB/070300.wav,stimuli/Laker/020002.wav,stimuli/Ringo/010103.wav,NA,1,silence,silence,G_1,1,0,0,1,0
11,stimuli/tones/silence.wav,2,143,noResp,NA,G_4,stimuli/Baron6dB/070203.wav,stimuli/Arrow/040200.wav,stimuli/Hopper/030100.wav,NA,1,silence,silence,W_4,0,0,0,1,0
11,stimuli/tones/FlatIEC-33dB.wav,0.75,144,noResp,NA,G_3,stimuli/Baron6dB/070302.wav,stimuli/Laker/020301.wav,stimuli/Ringo/010102.wav,NA,0,-33dB,Flat,G_3,1,0,1,0,0
11,stimuli/tones/FlatIEC-24dB.wav,1.25,145,space,3.1003,G_1,stimuli/Baron6dB/070300.wav,stimuli/Hopper/030303.wav,stimuli/Arrow/040301.wav,NA,1,-24dB,Flat,G_1,1,1,0,0,0
11,stimuli/tones/silence.wav,1.25,146,noResp,NA,W_1,stimuli/Baron6dB/070101.wav,stimuli/Arrow/040002.wav,stimuli/Charlie/000103.wav,NA,1,silence,silence,R_2,0,0,0,1,0
11,stimuli/tones/FlatIEC-27dB.wav,2,147,noResp,NA,B_3,stimuli/Baron6dB/070002.wav,stimuli/Arrow/040103.wav,stimuli/Arrow/040002.wav,NA,0,-27dB,Flat,B_3,1,0,1,0,0
11,stimuli/tones/silence.wav,2,148,noResp,NA,G_4,stimuli/Baron6dB/070303.wav,stimuli/Ringo/010001.wav,stimuli/Charlie/000003.wav,NA,1,silence,silence,G_4,1,0,0,1,0
11,stimuli/tones/silence.wav,1.25,149,noResp,NA,B_2,stimuli/Baron6dB/070001.wav,stimuli/Tiger/050003.wav,stimuli/Tiger/050001.wav,NA,1,silence,silence,B_2,1,0,0,1,0
11,stimuli/tones/FlatIEC-27dB.wav,1.25,150,noResp,NA,R_3,stimuli/Baron6dB/070102.wav,stimuli/Eagle/060100.wav,stimuli/Arrow/040101.wav,NA,0,-27dB,Flat,R_3,1,0,1,0,0
11,stimuli/tones/silence.wav,1.25,151,noResp,NA,R_1,stimuli/Baron6dB/070100.wav,stimuli/Arrow/040203.wav,stimuli/Hopper/030003.wav,NA,1,silence,silence,R_1,1,0,0,1,0
11,stimuli/tones/PercTri-33dB.wav,0.75,152,space,1.2088,R_1,stimuli/Baron6dB/070200.wav,stimuli/Tiger/050201.wav,stimuli/Arrow/040100.wav,NA,1,-33dB,PercTri,W_1,0,1,0,0,0
11,stimuli/tones/FlatIEC-21dB.wav,2,153,noResp,NA,W_4,stimuli/Baron6dB/070203.wav,stimuli/Laker/020202.wav,stimuli/Hopper/030201.wav,NA,0,-21dB,Flat,W_4,1,0,1,0,0
11,stimuli/tones/silence.wav,0.75,154,noResp,NA,R_4,stimuli/Baron6dB/070103.wav,stimuli/Arrow/040201.wav,stimuli/Hopper/030302.wav,NA,1,silence,silence,R_4,1,0,0,1,0
11,stimuli/tones/silence.wav,2,155,noResp,NA,B_1,stimuli/Baron6dB/070000.wav,stimuli/Charlie/000302.wav,stimuli/Hopper/030101.wav,NA,1,silence,silence,B_1,1,0,0,1,0
11,stimuli/tones/silence.wav,2,156,noResp,NA,W_3,stimuli/Baron6dB/070202.wav,stimuli/Charlie/000002.wav,stimuli/Charlie/000303.wav,NA,1,silence,silence,W_3,1,0,0,1,0
11,stimuli/tones/PercTri-27dB.wav,2,157,noResp,NA,W_2,stimuli/Baron6dB/070201.wav,stimuli/Hopper/030000.wav,stimuli/Tiger/050002.wav,NA,0,-27dB,PercTri,W_2,1,0,1,0,0
11,stimuli/tones/PercTri-33dB.wav,1.25,158,space,0.6158,G_2,stimuli/Baron6dB/070301.wav,stimuli/Arrow/040302.wav,stimuli/Hopper/030103.wav,NA,1,-33dB,PercTri,G_2,1,1,0,0,0
11,stimuli/tones/silence.wav,1.25,159,noResp,NA,B_4,stimuli/Baron6dB/070003.wav,stimuli/Charlie/000203.wav,stimuli/Hopper/030102.wav,NA,1,silence,silence,B_4,1,0,0,1,0
11,stimuli/tones/silence.wav,0.75,160,noResp,NA,G_3,stimuli/Baron6dB/070102.wav,stimuli/Laker/020303.wav,stimuli/Charlie/000001.wav,NA,1,silence,silence,R_3,0,0,0,1,0
11,stimuli/tones/PercTri-24dB.wav,0.75,161,space,1.4258,W_3,stimuli/Baron6dB/070202.wav,stimuli/Laker/020000.wav,stimuli/Arrow/040000.wav,NA,1,-24dB,PercTri,W_3,1,1,0,0,0
11,stimuli/tones/PercTri-21dB.wav,0.75,162,noResp,NA,G_4,stimuli/Baron6dB/070303.wav,stimuli/Eagle/060301.wav,stimuli/Hopper/030300.wav,NA,0,-21dB,PercTri,G_4,1,0,1,0,0
11,stimuli/tones/FlatIEC-33dB.wav,1.25,163,noResp,NA,W_4,stimuli/Baron6dB/070203.wav,stimuli/Eagle/060303.wav,stimuli/Tiger/050303.wav,NA,0,-33dB,Flat,W_4,1,0,1,0,0
11,stimuli/tones/silence.wav,2,164,noResp,NA,W_4,stimuli/Baron6dB/070103.wav,stimuli/Tiger/050203.wav,stimuli/Charlie/000002.wav,NA,1,silence,silence,R_4,0,0,0,1,0
11,stimuli/tones/PercTri-30dB.wav,1.25,165,space,2.6303,B_3,stimuli/Baron6dB/070002.wav,stimuli/Hopper/030202.wav,stimuli/Charlie/000203.wav,NA,1,-30dB,PercTri,B_3,1,1,0,0,0
11,stimuli/tones/FlatIEC-27dB.wav,1.25,166,noResp,NA,B_2,stimuli/Baron6dB/070001.wav,stimuli/Eagle/060203.wav,stimuli/Laker/020201.wav,NA,0,-27dB,Flat,B_2,1,0,1,0,0
11,stimuli/tones/silence.wav,2,167,noResp,NA,G_1,stimuli/Baron6dB/070300.wav,stimuli/Hopper/030003.wav,stimuli/Ringo/010003.wav,NA,1,silence,silence,G_1,1,0,0,1,0
11,stimuli/tones/silence.wav,0.75,168,noResp,NA,W_1,stimuli/Baron6dB/070200.wav,stimuli/Eagle/060101.wav,stimuli/Ringo/010303.wav,NA,1,silence,silence,W_1,1,0,0,1,0
11,stimuli/tones/silence.wav,1.25,169,noResp,NA,W_2,stimuli/Baron6dB/070201.wav,stimuli/Laker/020003.wav,stimuli/Arrow/040303.wav,NA,1,silence,silence,W_2,1,0,0,1,0
11,stimuli/tones/FlatIEC-33dB.wav,1.25,170,noResp,NA,R_1,stimuli/Baron6dB/070100.wav,stimuli/Eagle/060003.wav,stimuli/Eagle/060103.wav,NA,0,-33dB,Flat,R_1,1,0,1,0,0
