participant,tone,tone_onset,loop.thisN,key_resp_5.keys,key_resp_5.rt,mouseClick_5.clicked_name,thisA,thisB,thisC,typePrompt,cor,snr,env,CRMcorrect,CRMhit,hit,miss,cr,fa
1,stimuli/tones/silence.wav,0.75,0,noResp,NA,B_2,stimuli/Baron6dB/070001.wav,stimuli/Eagle/060103.wav,stimuli/Tiger/050301.wav,NA,1,silence,silence,B_2,1,0,0,1,0
1,stimuli/tones/silence.wav,2,1,noResp,NA,B_4,stimuli/Baron6dB/070003.wav,stimuli/Charlie/000102.wav,stimuli/Laker/020001.wav,NA,1,silence,silence,B_4,1,0,0,1,0
1,stimuli/tones/silence.wav,0.75,2,noResp,NA,B_1,stimuli/Baron6dB/070000.wav,stimuli/Arrow/040203.wav,stimuli/Eagle/060202.wav,NA,1,silence,silence,B_1,1,0,0,1,0
1,stimuli/tones/FlatIEC-24dB.wav,1.25,3,noResp,NA,B_3,stimuli/Baron6dB/070002.wav,stimuli/Arrow/040002.wav,stimuli/Charlie/000300.wav,NA,0,-24dB,Flat,B_3,1,0,1,0,0
1,stimuli/tones/FlatIEC-21dB.wav,0.75,4,space,1.3981,W_2,stimuli/Baron6dB/070201.wav,stimuli/Charlie/000000.wav,stimuli/Arrow/040201.wav,NA,1,-21dB,Flat,W_2,1,1,0,0,0
1,stimuli/tones/PercTri-21dB.wav,1.25,5,space,1.9353,R_4,stimuli/Baron6dB/070103.wav,stimuli/Eagle/060101.wav,stimuli/Arrow/040303.wav,NA,1,-21dB,PercTri,R_4,1,1,0,0,0
1,stimuli/tones/PercTri-24dB.wav,2,6,noResp,NA,R_1,stimuli/Baron6dB/070100.wav,stimuli/Hopper/030301.wav,stimuli/Tiger/050300.wav,NA,0,-24dB,PercTri,R_1,1,0,1,0,0
1,stimuli/tones/FlatIEC-21dB.wav,2,7,space,2.7799,B_1,stimuli/Baron6dB/070300.wav,stimuli/Charlie/000303.wav,stimuli/Eagle/060000.wav,NA,1,-21dB,Flat,G_1,0,1,0,0,0
1,stimuli/tones/PercTri-33dB.wav,2,8,space,2.0496,R_3,stimuli/Baron6dB/070102.wav,stimuli/Ringo/010001.wav,stimuli/Laker/020101.wav,NA,1,-33dB,PercTri,R_3,1,1,0,0,0
1,stimuli/tones/silence.wav,1.25,9,space,1.0343,W_1,stimuli/Baron6dB/070200.wav,stimuli/Tiger/050100.wav,stimuli/Ringo/010200.wav,NA,0,silence,silence,W_1,1,0,0,0,1
1,stimuli/tones/silence.wav,2,10,noResp,NA,G_4,stimuli/Baron6dB/070303.wav,stimuli/Eagle/060001.wav,stimuli/Arrow/040002.wav,NA,1,silence,silence,G_4,1,0,0,1,0
1,stimuli/tones/silence.wav,1.25,11,noResp,NA,G_3,stimuli/Baron6dB/070302.wav,stimuli/Hopper/030103.wav,stimuli/Ringo/010301.wav,NA,1,silence,silence,G_3,1,0,0,1,0
1,stimuli/tones/silence.wav,2,12,noResp,NA,B_2,stimuli/Baron6dB/070301.wav,stimuli/Ringo/010003.wav,stimuli/Tiger/050201.wav,NA,1,silence,silence,G_2,0,0,0,1,0
1,stimuli/tones/FlatIEC-21dB.wav,2,13,space,2.5176,W_4,stimuli/Baron6dB/070203.wav,stimuli/Laker/020301.wav,stimuli/Hopper/030302.wav,NA,1,-21dB,Flat,W_4,1,1,0,0,0
1,stimuli/tones/FlatIEC-21dB.wav,0.75,14,noResp,NA,R_2,stimuli/Baron6dB/070101.wav,stimuli/Laker/020200.wav,stimuli/Hopper/030003.wav,NA,0,-21dB,Flat,R_2,1,0,1,0,0
1,stimuli/tones/PercTri-33dB.wav,0.75,15,space,1.1977,W_3,stimuli/Baron6dB/070202.wav,stimuli/Arrow/040103.wav,stimuli/Arrow/040102.wav,NA,1,-33dB,PercTri,W_3,1,1,0,0,0
1,stimuli/tones/silence.wav,0.75,16,noResp,NA,R_1,stimuli/Baron6dB/070300.wav,stimuli/Laker/020001.wav,stimuli/Eagle/060101.wav,NA,1,silence,silence,G_1,0,0,0,1,0
1,stimuli/tones/FlatIEC-21dB.wav,1.25,17,space,2.4481,B_1,stimuli/Baron6dB/070000.wav,stimuli/Ringo/010102.wav,stimuli/Tiger/050203.wav,NA,1,-21dB,Flat,B_1,1,1,0,0,0
1,stimuli/tones/FlatIEC-21dB.wav,1.25,18,space,1.8932,R_3,stimuli/Baron6dB/070102.wav,stimuli/Tiger/050200.wav,stimuli/Tiger/050100.wav,NA,1,-21dB,Flat,R_3,1,1,0,0,0
1,stimuli/tones/silence.wav,1.25,19,noResp,NA,R_1,stimuli/Baron6dB/070100.wav,stimuli/Laker/020201.wav,stimuli/Arrow/040003.wav,NA,1,silence,silence,R_1,1,0,0,1,0
1,stimuli/tones/silence.wav,0.75,20,noResp,NA,W_2,stimuli/Baron6dB/070201.wav,stimuli/Arrow/040001.wav,stimuli/Hopper/030103.wav,NA,1,silence,silence,W_2,1,0,0,1,0
1,stimuli/tones/silence.wav,0.75,21,space,1.7093,G_3,stimuli/Baron6dB/070302.wav,stimuli/Laker/020002.wav,stimuli/Hopper/030100.wav,NA,0,silence,silence,G_3,1,0,0,0,1
1,stimuli/tones/silence.wav,1.25,22,noResp,NA,R_2,stimuli/Baron6dB/070101.wav,stimuli/Ringo/010202.wav,stimuli/Arrow/040202.wav,NA,1,silence,silence,R_2,1,0,0,1,0
1,stimuli/tones/silence.wav,0.75,23,noResp,NA,W_4,stimuli/Baron6dB/070303.wav,stimuli/Tiger/050002.wav,stimuli/Hopper/030001.wav,NA,1,silence,silence,G_4,0,0,0,1,0
1,stimuli/tones/PercTri-24dB.wav,0.75,24,space,1.1916,W_4,stimuli/Baron6dB/070203.wav,stimuli/Tiger/050301.wav,stimuli/Arrow/040001.wav,NA,1,-24dB,PercTri,W_4,1,1,0,0,0
1,stimuli/tones/PercTri-24dB.wav,1.25,25,space,1.7597,W_3,stimuli/Baron6dB/070202.wav,stimuli/Eagle/060000.wav,stimuli/Arrow/040100.wav,NA,1,-24dB,PercTri,W_3,1,1,0,0,0
1,stimuli/tones/PercTri-21dB.wav,2,26,space,3.3472,G_2,stimuli/Baron6dB/070301.wav,stimuli/Charlie/000001.wav,stimuli/Ringo/010103.wav,NA,1,-21dB,PercTri,G_2,1,1,0,0,0
1,stimuli/tones/silence.wav,0.75,27,noResp,NA,W_1,stimuli/Baron6dB/070200.wav,stimuli/Arrow/040100.wav,stimuli/Ringo/010003.wav,NA,1,silence,silence,W_1,1,0,0,1,0
1,stimuli/tones/PercTri-24dB.wav,1.25,28,space,1.7827,B_2,stimuli/Baron6dB/070001.wav,stimuli/Hopper/030101.wav,stimuli/Laker/020303.wav,NA,1,-24dB,PercTri,B_2,1,1,0,0,0
1,stimuli/tones/silence.wav,2,29,noResp,NA,G_3,stimuli/Baron6dB/070103.wav,stimuli/Ringo/010302.wav,stimuli/Hopper/030303.wav,NA,1,silence,silence,R_4,0,0,0,1,0
1,stimuli/tones/silence.wav,1.25,30,noResp,NA,B_4,stimuli/Baron6dB/070003.wav,stimuli/Hopper/030100.wav,stimuli/Hopper/030102.wav,NA,1,silence,silence,B_4,1,0,0,1,0
1,stimuli/tones/FlatIEC-27dB.wav,0.75,31,noResp,NA,B_3,stimuli/Baron6dB/070002.wav,stimuli/Ringo/010200.wav,stimuli/Arrow/040302.wav,NA,0,-27dB,Flat,B_3,1,0,1,0,0
1,stimuli/tones/silence.wav,1.25,32,noResp,NA,B_1,stimuli/Baron6dB/070000.wav,stimuli/Laker/020202.wav,stimuli/Ringo/010201.wav,NA,1,silence,silence,B_1,1,0,0,1,0
1,stimuli/tones/PercTri-21dB.wav,0.75,33,space,1.2498,G_2,stimuli/Baron6dB/070301.wav,stimuli/Ringo/010301.wav,stimuli/Tiger/050001.wav,NA,1,-21dB,PercTri,G_2,1,1,0,0,0
1,stimuli/tones/silence.wav,0.75,34,noResp,NA,W_3,stimuli/Baron6dB/070202.wav,stimuli/Laker/020203.wav,stimuli/Charlie/000002.wav,NA,1,silence,silence,W_3,1,0,0,1,0
1,stimuli/tones/silence.wav,1.25,35,noResp,NA,W_4,stimuli/Baron6dB/070103.wav,stimuli/Hopper/030300.wav,stimuli/Laker/020203.wav,NA,1,silence,silence,R_4,0,0,0,1,0
1,stimuli/tones/FlatIEC-24dB.wav,1.25,36,space,1.7566,W_1,stimuli/Baron6dB/070300.wav,stimuli/Eagle/060301.wav,stimuli/Tiger/050200.wav,NA,1,-24dB,Flat,G_1,0,1,0,0,0
1,stimuli/tones/silence.wav,2,37,noResp,NA,W_1,stimuli/Baron6dB/070200.wav,stimuli/Arrow/040201.wav,stimuli/Eagle/060100.wav,NA,1,silence,silence,W_1,1,0,0,1,0
1,stimuli/tones/silence.wav,1.25,38,noResp,NA,R_3,stimuli/Baron6dB/070102.wav,stimuli/Ringo/010100.wav,stimuli/Ringo/010002.wav,NA,1,silence,silence,R_3,1,0,0,1,0
1,stimuli/tones/FlatIEC-18dB.wav,2,39,space,2.6871,B_2,stimuli/Baron6dB/070101.wav,stimuli/Laker/020303.wav,stimuli/Eagle/060303.wav,NA,1,-18dB,Flat,R_2,0,1,0,0,0
1,stimuli/tones/FlatIEC-24dB.wav,0.75,40,noResp,NA,W_1,stimuli/Baron6dB/070100.wav,stimuli/Arrow/040303.wav,stimuli/Tiger/050102.wav,NA,0,-24dB,Flat,R_1,0,0,1,0,0
1,stimuli/tones/silence.wav,2,41,space,2.3473,B_4,stimuli/Baron6dB/070003.wav,stimuli/Tiger/050103.wav,stimuli/Eagle/060003.wav,NA,0,silence,silence,B_4,1,0,0,0,1
1,stimuli/tones/silence.wav,2,42,space,1.1669,B_2,stimuli/Baron6dB/070001.wav,stimuli/Tiger/050302.wav,stimuli/Laker/020000.wav,NA,0,silence,silence,B_2,1,0,0,0,1
1,stimuli/tones/silence.wav,1.25,43,noResp,NA,W_2,stimuli/Baron6dB/070201.wav,stimuli/Hopper/030000.wav,stimuli/Arrow/040000.wav,NA,1,silence,silence,W_2,1,0,0,1,0
1,stimuli/tones/PercTri-21dB.wav,2,44,space,2.8673,R_3,stimuli/Baron6dB/070302.wav,stimuli/Charlie/000100.wav,stimuli/Charlie/000103.wav,NA,1,-21dB,PercTri,G_3,0,1,0,0,0
1,stimuli/tones/FlatIEC-27dB.wav,0.75,45,noResp,NA,B_3,stimuli/Baron6dB/070002.wav,stimuli/Arrow/040000.wav,stimuli/Ringo/010101.wav,NA,0,-27dB,Flat,B_3,1,0,1,0,0
1,stimuli/tones/silence.wav,2,46,noResp,NA,W_4,stimuli/Baron6dB/070203.wav,stimuli/Charlie/000202.wav,stimuli/Ringo/010202.wav,NA,1,silence,silence,W_4,1,0,0,1,0
1,stimuli/tones/silence.wav,2,47,noResp,NA,G_4,stimuli/Baron6dB/070303.wav,stimuli/Eagle/060203.wav,stimuli/Charlie/000203.wav,NA,1,silence,silence,G_4,1,0,0,1,0
1,stimuli/tones/silence.wav,0.75,48,noResp,NA,R_4,stimuli/Baron6dB/070003.wav,stimuli/Charlie/000200.wav,stimuli/Charlie/000301.wav,NA,1,silence,silence,B_4,0,0,0,1,0
1,stimuli/tones/PercTri-27dB.wav,1.25,49,space,1.7243,R_3,stimuli/Baron6dB/070102.wav,stimuli/Hopper/030001.wav,stimuli/Tiger/050202.wav,NA,1,-27dB,PercTri,R_3,1,1,0,0,0
1,stimuli/tones/PercTri-33dB.wav,1.25,50,space,2.7984,R_1,stimuli/Baron6dB/070100.wav,stimuli/Hopper/030200.wav,stimuli/Ringo/010300.wav,NA,1,-33dB,PercTri,R_1,1,1,0,0,0
1,stimuli/tones/FlatIEC-18dB.wav,0.75,51,space,2.4547,B_2,stimuli/Baron6dB/070001.wav,stimuli/Tiger/050300.wav,stimuli/Laker/020103.wav,NA,1,-18dB,Flat,B_2,1,1,0,0,0
1,stimuli/tones/FlatIEC-24dB.wav,2,52,noResp,NA,W_2,stimuli/Baron6dB/070101.wav,stimuli/Ringo/010103.wav,stimuli/Tiger/050101.wav,NA,0,-24dB,Flat,R_2,0,0,1,0,0
1,stimuli/tones/silence.wav,2,53,space,0.1163,W_1,stimuli/Baron6dB/070200.wav,stimuli/Charlie/000002.wav,stimuli/Arrow/040203.wav,NA,0,silence,silence,W_1,1,0,0,0,1
1,stimuli/tones/silence.wav,2,54,noResp,NA,B_1,stimuli/Baron6dB/070000.wav,stimuli/Laker/020300.wav,stimuli/Hopper/030300.wav,NA,1,silence,silence,B_1,1,0,0,1,0
1,stimuli/tones/silence.wav,0.75,55,noResp,NA,W_4,stimuli/Baron6dB/070103.wav,stimuli/Eagle/060303.wav,stimuli/Tiger/050000.wav,NA,1,silence,silence,R_4,0,0,0,1,0
1,stimuli/tones/FlatIEC-33dB.wav,0.75,56,noResp,NA,W_4,stimuli/Baron6dB/070203.wav,stimuli/Eagle/060201.wav,stimuli/Arrow/040300.wav,NA,0,-33dB,Flat,W_4,1,0,1,0,0
1,stimuli/tones/FlatIEC-18dB.wav,1.25,57,space,2.1229,B_3,stimuli/Baron6dB/070002.wav,stimuli/Tiger/050203.wav,stimuli/Ringo/010001.wav,NA,1,-18dB,Flat,B_3,1,1,0,0,0
1,stimuli/tones/silence.wav,0.75,58,noResp,NA,G_3,stimuli/Baron6dB/070302.wav,stimuli/Arrow/040003.wav,stimuli/Charlie/000201.wav,NA,1,silence,silence,G_3,1,0,0,1,0
1,stimuli/tones/PercTri-33dB.wav,1.25,59,space,1.8145,G_1,stimuli/Baron6dB/070300.wav,stimuli/Arrow/040302.wav,stimuli/Eagle/060203.wav,NA,1,-33dB,PercTri,G_1,1,1,0,0,0
1,stimuli/tones/silence.wav,2,60,noResp,NA,G_4,stimuli/Baron6dB/070303.wav,stimuli/Hopper/030102.wav,stimuli/Laker/020100.wav,NA,1,silence,silence,G_4,1,0,0,1,0
1,stimuli/tones/silence.wav,1.25,61,noResp,NA,W_2,stimuli/Baron6dB/070201.wav,stimuli/Tiger/050003.wav,stimuli/Charlie/000303.wav,NA,1,silence,silence,W_2,1,0,0,1,0
1,stimuli/tones/silence.wav,1.25,62,noResp,NA,G_2,stimuli/Baron6dB/070301.wav,stimuli/Charlie/000300.wav,stimuli/Hopper/030101.wav,NA,1,silence,silence,G_2,1,0,0,1,0
1,stimuli/tones/FlatIEC-24dB.wav,2,63,space,2.6966,W_3,stimuli/Baron6dB/070202.wav,stimuli/Hopper/030201.wav,stimuli/Hopper/030000.wav,NA,1,-24dB,Flat,W_3,1,1,0,0,0
1,stimuli/tones/PercTri-24dB.wav,0.75,64,space,1.4506,W_3,stimuli/Baron6dB/070302.wav,stimuli/Hopper/030203.wav,stimuli/Eagle/060201.wav,NA,1,-24dB,PercTri,G_3,0,1,0,0,0
1,stimuli/tones/PercTri-21dB.wav,0.75,65,space,1.1324,W_3,stimuli/Baron6dB/070202.wav,stimuli/Laker/020100.wav,stimuli/Laker/020301.wav,NA,1,-21dB,PercTri,W_3,1,1,0,0,0
1,stimuli/tones/FlatIEC-33dB.wav,1.25,66,noResp,NA,W_1,stimuli/Baron6dB/070200.wav,stimuli/Laker/020103.wav,stimuli/Eagle/060302.wav,NA,0,-33dB,Flat,W_1,1,0,1,0,0
1,stimuli/tones/silence.wav,2,67,noResp,NA,B_1,stimuli/Baron6dB/070000.wav,stimuli/Laker/020302.wav,stimuli/Laker/020300.wav,NA,1,silence,silence,B_1,1,0,0,1,0
1,stimuli/tones/PercTri-18dB.wav,2,68,space,2.5072,B_2,stimuli/Baron6dB/070001.wav,stimuli/Hopper/030302.wav,stimuli/Ringo/010100.wav,NA,1,-18dB,PercTri,B_2,1,1,0,0,0
1,stimuli/tones/PercTri-30dB.wav,1.25,69,space,2.618,W_1,stimuli/Baron6dB/070100.wav,stimuli/Hopper/030303.wav,stimuli/Charlie/000100.wav,NA,1,-30dB,PercTri,R_1,0,1,0,0,0
1,stimuli/tones/PercTri-18dB.wav,2,70,space,2.6175,R_4,stimuli/Baron6dB/070103.wav,stimuli/Arrow/040300.wav,stimuli/Laker/020002.wav,NA,1,-18dB,PercTri,R_4,1,1,0,0,0
1,stimuli/tones/FlatIEC-33dB.wav,0.75,71,noResp,NA,G_2,stimuli/Baron6dB/070301.wav,stimuli/Hopper/030202.wav,stimuli/Tiger/050303.wav,NA,0,-33dB,Flat,G_2,1,0,1,0,0
1,stimuli/tones/FlatIEC-30dB.wav,1.25,72,noResp,NA,W_4,stimuli/Baron6dB/070203.wav,stimuli/Laker/020102.wav,stimuli/Arrow/040103.wav,NA,0,-30dB,Flat,W_4,1,0,1,0,0
1,stimuli/tones/silence.wav,0.75,73,noResp,NA,W_2,stimuli/Baron6dB/070201.wav,stimuli/Laker/020003.wav,stimuli/Ringo/010203.wav,NA,1,silence,silence,W_2,1,0,0,1,0
1,stimuli/tones/silence.wav,0.75,74,noResp,NA,W_3,stimuli/Baron6dB/070102.wav,stimuli/Eagle/060200.wav,stimuli/Arrow/040101.wav,NA,1,silence,silence,R_3,0,0,0,1,0
1,stimuli/tones/PercTri-30dB.wav,2,75,space,2.5513,B_3,stimuli/Baron6dB/070002.wav,stimuli/Charlie/000302.wav,stimuli/Charlie/000302.wav,NA,1,-30dB,PercTri,B_3,1,1,0,0,0
1,stimuli/tones/FlatIEC-33dB.wav,1.25,76,noResp,NA,R_4,stimuli/Baron6dB/070303.wav,stimuli/Ringo/010000.wav,stimuli/Charlie/000202.wav,NA,0,-33dB,Flat,G_4,0,0,1,0,0
1,stimuli/tones/silence.wav,1.25,77,noResp,NA,G_1,stimuli/Baron6dB/070300.wav,stimuli/Arrow/040101.wav,stimuli/Laker/020202.wav,NA,1,silence,silence,G_1,1,0,0,1,0
1,stimuli/tones/silence.wav,0.75,78,noResp,NA,B_4,stimuli/Baron6dB/070003.wav,stimuli/Eagle/060102.wav,stimuli/Charlie/000000.wav,NA,1,silence,silence,B_4,1,0,0,1,0
1,stimuli/tones/FlatIEC-24dB.wav,1.25,79,noResp,NA,R_2,stimuli/Baron6dB/070101.wav,stimuli/Tiger/050303.wav,stimuli/Eagle/060301.wav,NA,0,-24dB,Flat,R_2,1,0,1,0,0
1,stimuli/tones/silence.wav,1.25,80,space,0.2573,G_1,stimuli/Baron6dB/070300.wav,stimuli/Tiger/050101.wav,stimuli/Laker/020302.wav,NA,0,silence,silence,G_1,1,0,0,0,1
1,stimuli/tones/PercTri-24dB.wav,2,81,space,2.1993,B_4,stimuli/Baron6dB/070003.wav,stimuli/Arrow/040200.wav,stimuli/Hopper/030002.wav,NA,1,-24dB,PercTri,B_4,1,1,0,0,0
1,stimuli/tones/FlatIEC-33dB.wav,2,82,space,3.3689,R_4,stimuli/Baron6dB/070203.wav,stimuli/Tiger/050001.wav,stimuli/Tiger/050002.wav,NA,1,-33dB,Flat,W_4,0,1,0,0,0
1,stimuli/tones/PercTri-27dB.wav,0.75,83,space,1.5567,B_3,stimuli/Baron6dB/070002.wav,stimuli/Charlie/000003.wav,stimuli/Arrow/040200.wav,NA,1,-27dB,PercTri,B_3,1,1,0,0,0
1,stimuli/tones/silence.wav,2,84,noResp,NA,W_3,stimuli/Baron6dB/070202.wav,stimuli/Arrow/040202.wav,stimuli/Laker/020003.wav,NA,1,silence,silence,W_3,1,0,0,1,0
1,stimuli/tones/FlatIEC-27dB.wav,1.25,85,space,2.0844,R_3,stimuli/Baron6dB/070102.wav,stimuli/Eagle/060100.wav,stimuli/Charlie/000003.wav,NA,1,-27dB,Flat,R_3,1,1,0,0,0
1,stimuli/tones/silence.wav,0.75,86,space,2.4334,G_4,stimuli/Baron6dB/070303.wav,stimuli/Arrow/040301.wav,stimuli/Laker/020102.wav,NA,0,silence,silence,G_4,1,0,0,0,1
1,stimuli/tones/silence.wav,0.75,87,noResp,NA,W_4,stimuli/Baron6dB/070103.wav,stimuli/Charlie/000201.wav,stimuli/Charlie/000101.wav,NA,1,silence,silence,R_4,0,0,0,1,0
1,stimuli/tones/PercTri-33dB.wav,2,88,noResp,NA,W_1,stimuli/Baron6dB/070200.wav,stimuli/Laker/020101.wav,stimuli/Ringo/010302.wav,NA,0,-33dB,PercTri,W_1,1,0,1,0,0
1,stimuli/tones/silence.wav,2,89,space,0.0931,G_2,stimuli/Baron6dB/070301.wav,stimuli/Tiger/050201.wav,stimuli/Laker/020200.wav,NA,0,silence,silence,G_2,1,0,0,0,1
1,stimuli/tones/FlatIEC-33dB.wav,0.75,90,noResp,NA,B_2,stimuli/Baron6dB/070001.wav,stimuli/Laker/020000.wav,stimuli/Ringo/010000.wav,NA,0,-33dB,Flat,B_2,1,0,1,0,0
1,stimuli/tones/PercTri-21dB.wav,0.75,91,space,1.3667,G_3,stimuli/Baron6dB/070302.wav,stimuli/Ringo/010303.wav,stimuli/Charlie/000001.wav,NA,1,-21dB,PercTri,G_3,1,1,0,0,0
1,stimuli/tones/silence.wav,2,92,noResp,NA,R_1,stimuli/Baron6dB/070100.wav,stimuli/Charlie/000203.wav,stimuli/Eagle/060300.wav,NA,1,silence,silence,R_1,1,0,0,1,0
1,stimuli/tones/silence.wav,1.25,93,noResp,NA,B_1,stimuli/Baron6dB/070000.wav,stimuli/Charlie/000101.wav,stimuli/Eagle/060103.wav,NA,1,silence,silence,B_1,1,0,0,1,0
1,stimuli/tones/FlatIEC-27dB.wav,2,94,noResp,NA,R_2,stimuli/Baron6dB/070101.wav,stimuli/Hopper/030003.wav,stimuli/Hopper/030202.wav,NA,0,-27dB,Flat,R_2,1,0,1,0,0
1,stimuli/tones/silence.wav,0.75,95,space,0.0491,W_2,stimuli/Baron6dB/070201.wav,stimuli/Ringo/010203.wav,stimuli/Eagle/060002.wav,NA,0,silence,silence,W_2,1,0,0,0,1
1,stimuli/tones/silence.wav,1.25,96,noResp,NA,R_2,stimuli/Baron6dB/070101.wav,stimuli/Eagle/060003.wav,stimuli/Charlie/000102.wav,NA,1,silence,silence,R_2,1,0,0,1,0
1,stimuli/tones/FlatIEC-30dB.wav,1.25,97,noResp,NA,B_2,stimuli/Baron6dB/070001.wav,stimuli/Tiger/050102.wav,stimuli/Eagle/060102.wav,NA,0,-30dB,Flat,B_2,1,0,1,0,0
1,stimuli/tones/PercTri-30dB.wav,0.75,98,space,1.2638,W_4,stimuli/Baron6dB/070203.wav,stimuli/Ringo/010201.wav,stimuli/Hopper/030203.wav,NA,1,-30dB,PercTri,W_4,1,1,0,0,0
1,stimuli/tones/FlatIEC-27dB.wav,0.75,99,noResp,NA,R_1,stimuli/Baron6dB/070100.wav,stimuli/Eagle/060302.wav,stimuli/Ringo/010102.wav,NA,0,-27dB,Flat,R_1,1,0,1,0,0
1,stimuli/tones/FlatIEC-27dB.wav,1.25,100,noResp,NA,B_3,stimuli/Baron6dB/070002.wav,stimuli/Charlie/000301.wav,stimuli/Tiger/050103.wav,NA,0,-27dB,Flat,B_3,1,0,1,0,0
1,stimuli/tones/silence.wav,2,101,noResp,NA,R_4,stimuli/Baron6dB/070103.wav,stimuli/Ringo/010101.wav,stimuli/Tiger/050003.wav,NA,1,silence,silence,R_4,1,0,0,1,0
1,stimuli/tones/silence.wav,0.75,102,noResp,NA,W_1,stimuli/Baron6dB/070200.wav,stimuli/Eagle/060002.wav,stimuli/Laker/020201.wav,NA,1,silence,silence,W_1,1,0,0,1,0
1,stimuli/tones/silence.wav,0.75,103,noResp,NA,G_2,stimuli/Baron6dB/070301.wav,stimuli/Hopper/030002.wav,stimuli/Eagle/060200.wav,NA,1,silence,silence,G_2,1,0,0,1,0
1,stimuli/tones/FlatIEC-30dB.wav,2,104,noResp,NA,W_3,stimuli/Baron6dB/070202.wav,stimuli/Arrow/040102.wav,stimuli/Ringo/010303.wav,NA,0,-30dB,Flat,W_3,1,0,1,0,0
1,stimuli/tones/silence.wav,2,105,space,0.1585,B_1,stimuli/Baron6dB/070000.wav,stimuli/Tiger/050000.wav,stimuli/Arrow/040301.wav,NA,0,silence,silence,B_1,1,0,0,0,1
1,stimuli/tones/FlatIEC-30dB.wav,2,106,space,2.5986,G_4,stimuli/Baron6dB/070303.wav,stimuli/Ringo/010002.wav,stimuli/Hopper/030301.wav,NA,1,-30dB,Flat,G_4,1,1,0,0,0
1,stimuli/tones/PercTri-33dB.wav,0.75,107,space,1.3278,R_3,stimuli/Baron6dB/070102.wav,stimuli/Charlie/000103.wav,stimuli/Charlie/000200.wav,NA,1,-33dB,PercTri,R_3,1,1,0,0,0
1,stimuli/tones/PercTri-18dB.wav,1.25,108,space,1.7093,G_3,stimuli/Baron6dB/070302.wav,stimuli/Tiger/050202.wav,stimuli/Eagle/060001.wav,NA,1,-18dB,PercTri,G_3,1,1,0,0,0
1,stimuli/tones/FlatIEC-33dB.wav,2,109,space,3.1311,R_3,stimuli/Baron6dB/070300.wav,stimuli/Eagle/060202.wav,stimuli/Tiger/050302.wav,NA,1,-33dB,Flat,G_1,0,1,0,0,0
1,stimuli/tones/silence.wav,0.75,110,noResp,NA,W_2,stimuli/Baron6dB/070201.wav,stimuli/Ringo/010300.wav,stimuli/Hopper/030201.wav,NA,1,silence,silence,W_2,1,0,0,1,0
1,stimuli/tones/PercTri-30dB.wav,0.75,111,space,1.1871,B_4,stimuli/Baron6dB/070003.wav,stimuli/Eagle/060300.wav,stimuli/Hopper/030200.wav,NA,1,-30dB,PercTri,B_4,1,1,0,0,0
1,stimuli/tones/PercTri-27dB.wav,1.25,112,space,1.7348,G_2,stimuli/Baron6dB/070301.wav,stimuli/Ringo/010000.wav,stimuli/Hopper/030000.wav,NA,1,-27dB,PercTri,G_2,1,1,0,0,0
1,stimuli/tones/silence.wav,1.25,113,noResp,NA,B_2,stimuli/Baron6dB/070001.wav,stimuli/Hopper/030201.wav,stimuli/Tiger/050302.wav,NA,1,silence,silence,B_2,1,0,0,1,0
1,stimuli/tones/PercTri-30dB.wav,2,114,space,2.4561,B_4,stimuli/Baron6dB/070003.wav,stimuli/Tiger/050101.wav,stimuli/Hopper/030302.wav,NA,1,-30dB,PercTri,B_4,1,1,0,0,0
1,stimuli/tones/silence.wav,2,115,noResp,NA,G_3,stimuli/Baron6dB/070303.wav,stimuli/Arrow/040303.wav,stimuli/Charlie/000303.wav,NA,1,silence,silence,G_4,0,0,0,1,0
1,stimuli/tones/PercTri-27dB.wav,0.75,116,space,1.2424,R_1,stimuli/Baron6dB/070100.wav,stimuli/Tiger/050102.wav,stimuli/Charlie/000300.wav,NA,1,-27dB,PercTri,R_1,1,1,0,0,0
1,stimuli/tones/silence.wav,0.75,117,noResp,NA,G_1,stimuli/Baron6dB/070300.wav,stimuli/Charlie/000303.wav,stimuli/Ringo/010203.wav,NA,1,silence,silence,G_1,1,0,0,1,0
1,stimuli/tones/FlatIEC-18dB.wav,0.75,118,space,1.7405,W_2,stimuli/Baron6dB/070201.wav,stimuli/Charlie/000002.wav,stimuli/Laker/020302.wav,NA,1,-18dB,Flat,W_2,1,1,0,0,0
1,stimuli/tones/PercTri-27dB.wav,0.75,119,space,1.1286,R_2,stimuli/Baron6dB/070101.wav,stimuli/Ringo/010200.wav,stimuli/Arrow/040202.wav,NA,1,-27dB,PercTri,R_2,1,1,0,0,0
1,stimuli/tones/FlatIEC-18dB.wav,1.25,120,space,3.3523,W_1,stimuli/Baron6dB/070200.wav,stimuli/Hopper/030303.wav,stimuli/Hopper/030300.wav,NA,1,-18dB,Flat,W_1,1,1,0,0,0
1,stimuli/tones/silence.wav,1.25,121,noResp,NA,R_3,stimuli/Baron6dB/070102.wav,stimuli/Hopper/030202.wav,stimuli/Eagle/060101.wav,NA,1,silence,silence,R_3,1,0,0,1,0
1,stimuli/tones/PercTri-33dB.wav,1.25,122,space,1.6398,G_3,stimuli/Baron6dB/070302.wav,stimuli/Eagle/060000.wav,stimuli/Tiger/050001.wav,NA,1,-33dB,PercTri,G_3,1,1,0,0,0
1,stimuli/tones/silence.wav,1.25,123,noResp,NA,R_4,stimuli/Baron6dB/070103.wav,stimuli/Charlie/000202.wav,stimuli/Charlie/000101.wav,NA,1,silence,silence,R_4,1,0,0,1,0
1,stimuli/tones/silence.wav,0.75,124,noResp,NA,W_3,stimuli/Baron6dB/070202.wav,stimuli/Arrow/040103.wav,stimuli/Arrow/040002.wav,NA,1,silence,silence,W_3,1,0,0,1,0
1,stimuli/tones/silence.wav,1.25,125,noResp,NA,B_3,stimuli/Baron6dB/070002.wav,stimuli/Ringo/010201.wav,stimuli/Arrow/040201.wav,NA,1,silence,silence,B_3,1,0,0,1,0
1,stimuli/tones/silence.wav,2,126,noResp,NA,W_4,stimuli/Baron6dB/070203.wav,stimuli/Ringo/010102.wav,stimuli/Laker/020301.wav,NA,1,silence,silence,W_4,1,0,0,1,0
1,stimuli/tones/silence.wav,0.75,127,noResp,NA,B_1,stimuli/Baron6dB/070000.wav,stimuli/Arrow/040202.wav,stimuli/Hopper/030303.wav,NA,1,silence,silence,B_1,1,0,0,1,0
1,stimuli/tones/silence.wav,0.75,128,noResp,NA,R_4,stimuli/Baron6dB/070103.wav,stimuli/Ringo/010303.wav,stimuli/Hopper/030103.wav,NA,1,silence,silence,R_4,1,0,0,1,0
1,stimuli/tones/silence.wav,1.25,129,noResp,NA,G_1,stimuli/Baron6dB/070300.wav,stimuli/Tiger/050303.wav,stimuli/Arrow/040303.wav,NA,1,silence,silence,G_1,1,0,0,1,0
1,stimuli/tones/FlatIEC-27dB.wav,1.25,130,space,2.4064,B_1,stimuli/Baron6dB/070000.wav,stimuli/Charlie/000203.wav,stimuli/Charlie/000302.wav,NA,1,-27dB,Flat,B_1,1,1,0,0,0
1,stimuli/tones/silence.wav,2,131,noResp,NA,W_3,stimuli/Baron6dB/070202.wav,stimuli/Tiger/050200.wav,stimuli/Ringo/010001.wav,NA,1,silence,silence,W_3,1,0,0,1,0
1,stimuli/tones/silence.wav,0.75,132,noResp,NA,G_3,stimuli/Baron6dB/070302.wav,stimuli/Hopper/030102.wav,stimuli/Charlie/000002.wav,NA,1,silence,silence,G_3,1,0,0,1,0
1,stimuli/tones/silence.wav,1.25,133,noResp,NA,G_2,stimuli/Baron6dB/070301.wav,stimuli/Laker/020002.wav,stimuli/Eagle/060302.wav,NA,1,silence,silence,G_2,1,0,0,1,0
1,stimuli/tones/FlatIEC-27dB.wav,2,134,space,2.6231,W_1,stimuli/Baron6dB/070200.wav,stimuli/Laker/020100.wav,stimuli/Eagle/060001.wav,NA,1,-27dB,Flat,W_1,1,1,0,0,0
1,stimuli/tones/FlatIEC-30dB.wav,0.75,135,space,1.5983,W_4,stimuli/Baron6dB/070203.wav,stimuli/Eagle/060002.wav,stimuli/Ringo/010201.wav,NA,1,-30dB,Flat,W_4,1,1,0,0,0
1,stimuli/tones/silence.wav,2,136,noResp,NA,G_4,stimuli/Baron6dB/070303.wav,stimuli/Tiger/050202.wav,stimuli/Hopper/030102.wav,NA,1,silence,silence,G_4,1,0,0,1,0
1,stimuli/tones/FlatIEC-21dB.wav,0.75,137,noResp,NA,W_2,stimuli/Baron6dB/070101.wav,stimuli/Hopper/030101.wav,stimuli/Ringo/010300.wav,NA,0,-21dB,Flat,R_2,0,0,1,0,0
1,stimuli/tones/PercTri-30dB.wav,1.25,138,space,1.7591,B_3,stimuli/Baron6dB/070002.wav,stimuli/Tiger/050003.wav,stimuli/Eagle/060200.wav,NA,1,-30dB,PercTri,B_3,1,1,0,0,0
1,stimuli/tones/silence.wav,2,139,noResp,NA,R_1,stimuli/Baron6dB/070100.wav,stimuli/Eagle/060102.wav,stimuli/Charlie/000100.wav,NA,1,silence,silence,R_1,1,0,0,1,0
1,stimuli/tones/FlatIEC-24dB.wav,0.75,140,space,1.8315,B_2,stimuli/Baron6dB/070001.wav,stimuli/Ringo/010101.wav,stimuli/Tiger/050201.wav,NA,1,-24dB,Flat,B_2,1,1,0,0,0
1,stimuli/tones/silence.wav,0.75,141,noResp,NA,W_2,stimuli/Baron6dB/070201.wav,stimuli/Tiger/050103.wav,stimuli/Hopper/030001.wav,NA,1,silence,silence,W_2,1,0,0,1,0
1,stimuli/tones/PercTri-18dB.wav,0.75,142,space,1.2593,W_3,stimuli/Baron6dB/070102.wav,stimuli/Hopper/030203.wav,stimuli/Ringo/010100.wav,NA,1,-18dB,PercTri,R_3,0,1,0,0,0
1,stimuli/tones/PercTri-24dB.wav,2,143,space,2.5028,B_4,stimuli/Baron6dB/070003.wav,stimuli/Eagle/060103.wav,stimuli/Charlie/000301.wav,NA,1,-24dB,PercTri,B_4,1,1,0,0,0
1,stimuli/tones/PercTri-18dB.wav,2,144,space,2.62,G_1,stimuli/Baron6dB/070300.wav,stimuli/Hopper/030002.wav,stimuli/Ringo/010103.wav,NA,1,-18dB,PercTri,G_1,1,1,0,0,0
1,stimuli/tones/silence.wav,1.25,145,noResp,NA,B_3,stimuli/Baron6dB/070002.wav,stimuli/Laker/020000.wav,stimuli/Hopper/030200.wav,NA,1,silence,silence,B_3,1,0,0,1,0
1,stimuli/tones/silence.wav,1.25,146,noResp,NA,G_2,stimuli/Baron6dB/070301.wav,stimuli/Laker/020103.wav,stimuli/Laker/020200.wav,NA,1,silence,silence,G_2,1,0,0,1,0
1,stimuli/tones/silence.wav,2,147,space,1.8837,B_3,stimuli/Baron6dB/070102.wav,stimuli/Ringo/010002.wav,stimuli/Ringo/010200.wav,NA,0,silence,silence,R_3,0,0,0,0,1
1,stimuli/tones/silence.wav,1.25,148,noResp,NA,R_4,stimuli/Baron6dB/070103.wav,stimuli/Charlie/000003.wav,stimuli/Hopper/030201.wav,NA,1,silence,silence,R_4,1,0,0,1,0
1,stimuli/tones/FlatIEC-18dB.wav,1.25,149,space,1.6668,G_3,stimuli/Baron6dB/070302.wav,stimuli/Laker/020202.wav,stimuli/Charlie/000202.wav,NA,1,-18dB,Flat,G_3,1,1,0,0,0
1,stimuli/tones/PercTri-21dB.wav,2,150,space,2.4812,B_2,stimuli/Baron6dB/070001.wav,stimuli/Hopper/030302.wav,stimuli/Laker/020003.wav,NA,1,-21dB,PercTri,B_2,1,1,0,0,0
1,stimuli/tones/silence.wav,2,151,noResp,NA,W_4,stimuli/Baron6dB/070203.wav,stimuli/Hopper/030300.wav,stimuli/Charlie/000000.wav,NA,1,silence,silence,W_4,1,0,0,1,0
1,stimuli/tones/PercTri-24dB.wav,1.25,152,space,1.7033,G_4,stimuli/Baron6dB/070303.wav,stimuli/Charlie/000302.wav,stimuli/Tiger/050003.wav,NA,1,-24dB,PercTri,G_4,1,1,0,0,0
1,stimuli/tones/silence.wav,0.75,153,noResp,NA,R_1,stimuli/Baron6dB/070100.wav,stimuli/Hopper/030200.wav,stimuli/Eagle/060102.wav,NA,1,silence,silence,R_1,1,0,0,1,0
1,stimuli/tones/silence.wav,2,154,noResp,NA,B_4,stimuli/Baron6dB/070003.wav,stimuli/Arrow/040302.wav,stimuli/Tiger/050200.wav,NA,1,silence,silence,B_4,1,0,0,1,0
1,stimuli/tones/PercTri-18dB.wav,1.25,155,space,1.6492,W_2,stimuli/Baron6dB/070201.wav,stimuli/Tiger/050001.wav,stimuli/Tiger/050100.wav,NA,1,-18dB,PercTri,W_2,1,1,0,0,0
1,stimuli/tones/silence.wav,2,156,noResp,NA,W_3,stimuli/Baron6dB/070202.wav,stimuli/Hopper/030001.wav,stimuli/Eagle/060301.wav,NA,1,silence,silence,W_3,1,0,0,1,0
1,stimuli/tones/silence.wav,2,157,noResp,NA,W_1,stimuli/Baron6dB/070200.wav,stimuli/Ringo/010003.wav,stimuli/Laker/020201.wav,NA,1,silence,silence,W_1,1,0,0,1,0
1,stimuli/tones/PercTri-27dB.wav,2,158,space,2.5228,W_2,stimuli/Baron6dB/070101.wav,stimuli/Arrow/040102.wav,stimuli/Tiger/050102.wav,NA,1,-27dB,PercTri,R_2,0,1,0,0,0
1,stimuli/tones/silence.wav,1.25,159,noResp,NA,B_1,stimuli/Baron6dB/070000.wav,stimuli/Ringo/010202.wav,stimuli/Laker/020100.wav,NA,1,silence,silence,B_1,1,0,0,1,0
1,stimuli/tones/silence.wav,1.25,160,noResp,NA,W_4,stimuli/Baron6dB/070203.wav,stimuli/Eagle/060201.wav,stimuli/Laker/020203.wav,NA,1,silence,silence,W_4,1,0,0,1,0
1,stimuli/tones/silence.wav,0.75,161,noResp,NA,W_3,stimuli/Baron6dB/070202.wav,stimuli/Eagle/060302.wav,stimuli/Tiger/050300.wav,NA,1,silence,silence,W_3,1,0,0,1,0
1,stimuli/tones/silence.wav,0.75,162,noResp,NA,B_4,stimuli/Baron6dB/070003.wav,stimuli/Ringo/010300.wav,stimuli/Laker/020202.wav,NA,1,silence,silence,B_4,1,0,0,1,0
1,stimuli/tones/PercTri-27dB.wav,1.25,163,space,1.7485,W_2,stimuli/Baron6dB/070201.wav,stimuli/Arrow/040003.wav,stimuli/Eagle/060103.wav,NA,1,-27dB,PercTri,W_2,1,1,0,0,0
1,stimuli/tones/silence.wav,1.25,164,noResp,NA,W_1,stimuli/Baron6dB/070200.wav,stimuli/Charlie/000201.wav,stimuli/Hopper/030101.wav,NA,1,silence,silence,W_1,1,0,0,1,0
1,stimuli/tones/silence.wav,1.25,165,noResp,NA,B_1,stimuli/Baron6dB/070000.wav,stimuli/Hopper/030003.wav,stimuli/Eagle/060003.wav,NA,1,silence,silence,B_1,1,0,0,1,0
1,stimuli/tones/FlatIEC-18dB.wav,2,166,space,2.6356,R_2,stimuli/Baron6dB/070101.wav,stimuli/Eagle/060003.wav,stimuli/Charlie/000003.wav,NA,1,-18dB,Flat,R_2,1,1,0,0,0
1,stimuli/tones/silence.wav,1.25,167,noResp,NA,R_3,stimuli/Baron6dB/070102.wav,stimuli/Eagle/060202.wav,stimuli/Hopper/030100.wav,NA,1,silence,silence,R_3,1,0,0,1,0
1,stimuli/tones/silence.wav,2,168,noResp,NA,G_2,stimuli/Baron6dB/070001.wav,stimuli/Eagle/060200.wav,stimuli/Eagle/060000.wav,NA,1,silence,silence,B_2,0,0,0,1,0
1,stimuli/tones/PercTri-30dB.wav,1.25,169,space,1.7825,B_3,stimuli/Baron6dB/070302.wav,stimuli/Ringo/010203.wav,stimuli/Charlie/000203.wav,NA,1,-30dB,PercTri,G_3,0,1,0,0,0
1,stimuli/tones/PercTri-18dB.wav,0.75,170,space,1.4846,G_4,stimuli/Baron6dB/070303.wav,stimuli/Arrow/040201.wav,stimuli/Tiger/050202.wav,NA,1,-18dB,PercTri,G_4,1,1,0,0,0
1,stimuli/tones/silence.wav,2,171,noResp,NA,B_3,stimuli/Baron6dB/070002.wav,stimuli/Tiger/050301.wav,stimuli/Hopper/030002.wav,NA,1,silence,silence,B_3,1,0,0,1,0
1,stimuli/tones/PercTri-18dB.wav,1.25,172,space,1.7328,B_2,stimuli/Baron6dB/070301.wav,stimuli/Arrow/040203.wav,stimuli/Charlie/000103.wav,NA,1,-18dB,PercTri,G_2,0,1,0,0,0
1,stimuli/tones/silence.wav,2,173,noResp,NA,R_4,stimuli/Baron6dB/070103.wav,stimuli/Charlie/000103.wav,stimuli/Eagle/060100.wav,NA,1,silence,silence,R_4,1,0,0,1,0
1,stimuli/tones/FlatIEC-30dB.wav,0.75,174,noResp,NA,G_1,stimuli/Baron6dB/070300.wav,stimuli/Hopper/030301.wav,stimuli/Charlie/000102.wav,NA,0,-30dB,Flat,G_1,1,0,1,0,0
1,stimuli/tones/PercTri-21dB.wav,1.25,175,space,1.8665,B_1,stimuli/Baron6dB/070100.wav,stimuli/Tiger/050201.wav,stimuli/Laker/020000.wav,NA,1,-21dB,PercTri,R_1,0,1,0,0,0
1,stimuli/tones/PercTri-21dB.wav,1.25,176,space,1.7365,W_2,stimuli/Baron6dB/070301.wav,stimuli/Tiger/050203.wav,stimuli/Tiger/050203.wav,NA,1,-21dB,PercTri,G_2,0,1,0,0,0
1,stimuli/tones/silence.wav,1.25,177,noResp,NA,W_4,stimuli/Baron6dB/070203.wav,stimuli/Charlie/000000.wav,stimuli/Ringo/010302.wav,NA,1,silence,silence,W_4,1,0,0,1,0
1,stimuli/tones/FlatIEC-18dB.wav,0.75,178,space,1.7263,G_4,stimuli/Baron6dB/070303.wav,stimuli/Ringo/010302.wav,stimuli/Ringo/010301.wav,NA,1,-18dB,Flat,G_4,1,1,0,0,0
1,stimuli/tones/silence.wav,1.25,179,noResp,NA,G_3,stimuli/Baron6dB/070302.wav,stimuli/Eagle/060303.wav,stimuli/Arrow/040000.wav,NA,1,silence,silence,G_3,1,0,0,1,0
1,stimuli/tones/FlatIEC-21dB.wav,2,180,noResp,NA,R_3,stimuli/Baron6dB/070102.wav,stimuli/Ringo/010001.wav,stimuli/Eagle/060002.wav,NA,0,-21dB,Flat,R_3,1,0,1,0,0
1,stimuli/tones/silence.wav,1.25,181,space,0.1422,W_2,stimuli/Baron6dB/070201.wav,stimuli/Charlie/000101.wav,stimuli/Charlie/000001.wav,NA,0,silence,silence,W_2,1,0,0,0,1
1,stimuli/tones/silence.wav,0.75,182,noResp,NA,W_1,stimuli/Baron6dB/070200.wav,stimuli/Charlie/000200.wav,stimuli/Arrow/040103.wav,NA,1,silence,silence,W_1,1,0,0,1,0
1,stimuli/tones/PercTri-30dB.wav,0.75,183,space,1.1858,W_2,stimuli/Baron6dB/070101.wav,stimuli/Laker/020003.wav,stimuli/Ringo/010002.wav,NA,1,-30dB,PercTri,R_2,0,1,0,0,0
1,stimuli/tones/PercTri-33dB.wav,2,184,space,2.468,W_3,stimuli/Baron6dB/070202.wav,stimuli/Tiger/050300.wav,stimuli/Tiger/050303.wav,NA,1,-33dB,PercTri,W_3,1,1,0,0,0
1,stimuli/tones/PercTri-18dB.wav,0.75,185,space,1.2328,R_1,stimuli/Baron6dB/070100.wav,stimuli/Eagle/060301.wav,stimuli/Arrow/040001.wav,NA,1,-18dB,PercTri,R_1,1,1,0,0,0
1,stimuli/tones/FlatIEC-30dB.wav,1.25,186,noResp,NA,B_3,stimuli/Baron6dB/070002.wav,stimuli/Charlie/000001.wav,stimuli/Ringo/010003.wav,NA,0,-30dB,Flat,B_3,1,0,1,0,0
1,stimuli/tones/FlatIEC-30dB.wav,0.75,187,space,1.1764,R_4,stimuli/Baron6dB/070103.wav,stimuli/Eagle/060300.wav,stimuli/Arrow/040101.wav,NA,1,-30dB,Flat,R_4,1,1,0,0,0
1,stimuli/tones/silence.wav,2,188,noResp,NA,B_1,stimuli/Baron6dB/070000.wav,stimuli/Tiger/050100.wav,stimuli/Hopper/030203.wav,NA,1,silence,silence,B_1,1,0,0,1,0
1,stimuli/tones/FlatIEC-18dB.wav,2,189,space,2.5931,B_2,stimuli/Baron6dB/070001.wav,stimuli/Tiger/050000.wav,stimuli/Arrow/040203.wav,NA,1,-18dB,Flat,B_2,1,1,0,0,0
1,stimuli/tones/FlatIEC-27dB.wav,2,190,space,2.7196,B_4,stimuli/Baron6dB/070003.wav,stimuli/Arrow/040002.wav,stimuli/Hopper/030003.wav,NA,1,-27dB,Flat,B_4,1,1,0,0,0
1,stimuli/tones/silence.wav,1.25,191,noResp,NA,G_1,stimuli/Baron6dB/070300.wav,stimuli/Ringo/010103.wav,stimuli/Ringo/010202.wav,NA,1,silence,silence,G_1,1,0,0,1,0
1,stimuli/tones/FlatIEC-33dB.wav,2,192,noResp,NA,R_4,stimuli/Baron6dB/070103.wav,stimuli/Hopper/030000.wav,stimuli/Eagle/060203.wav,NA,0,-33dB,Flat,R_4,1,0,1,0,0
1,stimuli/tones/PercTri-27dB.wav,2,193,space,3.0251,W_4,stimuli/Baron6dB/070303.wav,stimuli/Laker/020201.wav,stimuli/Tiger/050301.wav,NA,1,-27dB,PercTri,G_4,0,1,0,0,0
1,stimuli/tones/FlatIEC-24dB.wav,2,194,space,2.6164,R_2,stimuli/Baron6dB/070101.wav,stimuli/Charlie/000100.wav,stimuli/Eagle/060201.wav,NA,1,-24dB,Flat,R_2,1,1,0,0,0
1,stimuli/tones/silence.wav,0.75,195,noResp,NA,B_2,stimuli/Baron6dB/070001.wav,stimuli/Hopper/030100.wav,stimuli/Laker/020001.wav,NA,1,silence,silence,B_2,1,0,0,1,0
1,stimuli/tones/PercTri-24dB.wav,0.75,196,space,1.2502,W_1,stimuli/Baron6dB/070200.wav,stimuli/Arrow/040301.wav,stimuli/Laker/020300.wav,NA,1,-24dB,PercTri,W_1,1,1,0,0,0
1,stimuli/tones/silence.wav,0.75,197,noResp,NA,G_4,stimuli/Baron6dB/070003.wav,stimuli/Eagle/060001.wav,stimuli/Ringo/010101.wav,NA,1,silence,silence,B_4,0,0,0,1,0
1,stimuli/tones/FlatIEC-21dB.wav,1.25,198,space,1.7438,G_2,stimuli/Baron6dB/070301.wav,stimuli/Laker/020101.wav,stimuli/Eagle/060303.wav,NA,1,-21dB,Flat,G_2,1,1,0,0,0
1,stimuli/tones/silence.wav,1.25,199,noResp,NA,G_1,stimuli/Baron6dB/070300.wav,stimuli/Arrow/040300.wav,stimuli/Tiger/050101.wav,NA,1,silence,silence,G_1,1,0,0,1,0
1,stimuli/tones/silence.wav,1.25,200,noResp,NA,B_1,stimuli/Baron6dB/070000.wav,stimuli/Laker/020200.wav,stimuli/Hopper/030202.wav,NA,1,silence,silence,B_1,1,0,0,1,0
1,stimuli/tones/FlatIEC-33dB.wav,1.25,201,noResp,NA,B_3,stimuli/Baron6dB/070002.wav,stimuli/Laker/020203.wav,stimuli/Ringo/010102.wav,NA,0,-33dB,Flat,B_3,1,0,1,0,0
1,stimuli/tones/silence.wav,0.75,202,noResp,NA,W_2,stimuli/Baron6dB/070201.wav,stimuli/Laker/020102.wav,stimuli/Arrow/040102.wav,NA,1,silence,silence,W_2,1,0,0,1,0
1,stimuli/tones/silence.wav,2,203,noResp,NA,W_3,stimuli/Baron6dB/070202.wav,stimuli/Laker/020301.wav,stimuli/Laker/020002.wav,NA,1,silence,silence,W_3,1,0,0,1,0
1,stimuli/tones/PercTri-30dB.wav,2,204,space,2.607,W_1,stimuli/Baron6dB/070100.wav,stimuli/Charlie/000102.wav,stimuli/Tiger/050002.wav,NA,1,-30dB,PercTri,R_1,0,1,0,0,0
1,stimuli/tones/FlatIEC-24dB.wav,0.75,205,noResp,NA,R_3,stimuli/Baron6dB/070102.wav,stimuli/Charlie/000301.wav,stimuli/Ringo/010000.wav,NA,0,-24dB,Flat,R_3,1,0,1,0,0
1,stimuli/tones/PercTri-33dB.wav,0.75,206,space,1.2093,W_4,stimuli/Baron6dB/070203.wav,stimuli/Arrow/040000.wav,stimuli/Laker/020102.wav,NA,1,-33dB,PercTri,W_4,1,1,0,0,0
1,stimuli/tones/FlatIEC-30dB.wav,2,207,space,2.9488,G_3,stimuli/Baron6dB/070302.wav,stimuli/Eagle/060203.wav,stimuli/Arrow/040200.wav,NA,1,-30dB,Flat,G_3,1,1,0,0,0
1,stimuli/tones/silence.wav,2,208,noResp,NA,B_1,stimuli/Baron6dB/070000.wav,stimuli/Arrow/040100.wav,stimuli/Arrow/040003.wav,NA,1,silence,silence,B_1,1,0,0,1,0
1,stimuli/tones/silence.wav,0.75,209,noResp,NA,W_3,stimuli/Baron6dB/070202.wav,stimuli/Tiger/050302.wav,stimuli/Charlie/000201.wav,NA,1,silence,silence,W_3,1,0,0,1,0
1,stimuli/tones/silence.wav,0.75,210,noResp,NA,W_2,stimuli/Baron6dB/070201.wav,stimuli/Ringo/010301.wav,stimuli/Laker/020303.wav,NA,1,silence,silence,W_2,1,0,0,1,0
1,stimuli/tones/PercTri-27dB.wav,2,211,space,2.4692,R_1,stimuli/Baron6dB/070100.wav,stimuli/Charlie/000300.wav,stimuli/Arrow/040301.wav,NA,1,-27dB,PercTri,R_1,1,1,0,0,0
1,stimuli/tones/silence.wav,1.25,212,noResp,NA,B_4,stimuli/Baron6dB/070003.wav,stimuli/Laker/020302.wav,stimuli/Hopper/030301.wav,NA,1,silence,silence,B_4,1,0,0,1,0
1,stimuli/tones/silence.wav,0.75,213,noResp,NA,G_3,stimuli/Baron6dB/070302.wav,stimuli/Tiger/050002.wav,stimuli/Ringo/010303.wav,NA,1,silence,silence,G_3,1,0,0,1,0
1,stimuli/tones/silence.wav,2,214,noResp,NA,R_3,stimuli/Baron6dB/070102.wav,stimuli/Ringo/010100.wav,stimuli/Eagle/060202.wav,NA,1,silence,silence,R_3,1,0,0,1,0
1,stimuli/tones/silence.wav,2,215,noResp,NA,G_4,stimuli/Baron6dB/070303.wav,stimuli/Laker/020001.wav,stimuli/Arrow/040302.wav,NA,1,silence,silence,G_4,1,0,0,1,0
10,stimuli/tones/silence.wav,1.25,0,noResp,NA,B_4,stimuli/Baron6dB/070003.wav,stimuli/Ringo/010203.wav,stimuli/Hopper/030103.wav,NA,1,silence,silence,B_4,1,0,0,1,0
10,stimuli/tones/FlatIEC-27dB.wav,1.25,1,noResp,NA,G_3,stimuli/Baron6dB/070102.wav,stimuli/Laker/020200.wav,stimuli/Eagle/060000.wav,NA,0,-27dB,Flat,R_3,0,0,1,0,0
10,stimuli/tones/FlatIEC-24dB.wav,0.75,2,noResp,NA,R_4,stimuli/Baron6dB/070103.wav,stimuli/Tiger/050103.wav,stimuli/Charlie/000000.wav,NA,0,-24dB,Flat,R_4,1,0,1,0,0
10,stimuli/tones/PercTri-27dB.wav,2,3,noResp,NA,G_3,stimuli/Baron6dB/070302.wav,stimuli/Charlie/000002.wav,stimuli/Tiger/050100.wav,NA,0,-27dB,PercTri,G_3,1,0,1,0,0
10,stimuli/tones/silence.wav,1.25,4,noResp,NA,G_1,stimuli/Baron6dB/070300.wav,stimuli/Laker/020100.wav,stimuli/Arrow/040203.wav,NA,1,silence,silence,G_1,1,0,0,1,0
10,stimuli/tones/FlatIEC-24dB.wav,2,5,noResp,NA,R_2,stimuli/Baron6dB/070101.wav,stimuli/Eagle/060203.wav,stimuli/Hopper/030302.wav,NA,0,-24dB,Flat,R_2,1,0,1,0,0
10,stimuli/tones/silence.wav,0.75,6,noResp,NA,R_1,stimuli/Baron6dB/070100.wav,stimuli/Arrow/040001.wav,stimuli/Ringo/010302.wav,NA,1,silence,silence,R_1,1,0,0,1,0
10,stimuli/tones/FlatIEC-30dB.wav,0.75,7,noResp,NA,W_3,stimuli/Baron6dB/070202.wav,stimuli/Eagle/060101.wav,stimuli/Tiger/050300.wav,NA,0,-30dB,Flat,W_3,1,0,1,0,0
10,stimuli/tones/silence.wav,2,8,noResp,NA,W_2,stimuli/Baron6dB/070201.wav,stimuli/Ringo/010001.wav,stimuli/Tiger/050302.wav,NA,1,silence,silence,W_2,1,0,0,1,0
10,stimuli/tones/FlatIEC-27dB.wav,0.75,9,noResp,NA,W_4,stimuli/Baron6dB/070203.wav,stimuli/Charlie/000200.wav,stimuli/Tiger/050201.wav,NA,0,-27dB,Flat,W_4,1,0,1,0,0
10,stimuli/tones/silence.wav,1.25,10,noResp,NA,B_3,stimuli/Baron6dB/070002.wav,stimuli/Tiger/050300.wav,stimuli/Hopper/030200.wav,NA,1,silence,silence,B_3,1,0,0,1,0
10,stimuli/tones/FlatIEC-30dB.wav,2,11,noResp,NA,G_4,stimuli/Baron6dB/070303.wav,stimuli/Tiger/050303.wav,stimuli/Charlie/000202.wav,NA,0,-30dB,Flat,G_4,1,0,1,0,0
10,stimuli/tones/silence.wav,2,12,noResp,NA,G_2,stimuli/Baron6dB/070301.wav,stimuli/Hopper/030000.wav,stimuli/Laker/020303.wav,NA,1,silence,silence,G_2,1,0,0,1,0
10,stimuli/tones/silence.wav,0.75,13,noResp,NA,W_1,stimuli/Baron6dB/070200.wav,stimuli/Eagle/060300.wav,stimuli/Ringo/010101.wav,NA,1,silence,silence,W_1,1,0,0,1,0
10,stimuli/tones/PercTri-33dB.wav,2,14,noResp,NA,B_1,stimuli/Baron6dB/070000.wav,stimuli/Laker/020103.wav,stimuli/Tiger/050202.wav,NA,0,-33dB,PercTri,B_1,1,0,1,0,0
10,stimuli/tones/PercTri-30dB.wav,2,15,noResp,NA,B_2,stimuli/Baron6dB/070001.wav,stimuli/Hopper/030102.wav,stimuli/Ringo/010002.wav,NA,0,-30dB,PercTri,B_2,1,0,1,0,0
10,stimuli/tones/FlatIEC-24dB.wav,1.25,16,noResp,NA,G_4,stimuli/Baron6dB/070303.wav,stimuli/Tiger/050301.wav,stimuli/Hopper/030100.wav,NA,0,-24dB,Flat,G_4,1,0,1,0,0
10,stimuli/tones/silence.wav,0.75,17,noResp,NA,G_4,stimuli/Baron6dB/070103.wav,stimuli/Laker/020202.wav,stimuli/Laker/020101.wav,NA,1,silence,silence,R_4,0,0,0,1,0
10,stimuli/tones/silence.wav,0.75,18,noResp,NA,B_1,stimuli/Baron6dB/070000.wav,stimuli/Ringo/010103.wav,stimuli/Ringo/010201.wav,NA,1,silence,silence,B_1,1,0,0,1,0
10,stimuli/tones/silence.wav,0.75,19,noResp,NA,B_4,stimuli/Baron6dB/070003.wav,stimuli/Ringo/010200.wav,stimuli/Charlie/000302.wav,NA,1,silence,silence,B_4,1,0,0,1,0
10,stimuli/tones/FlatIEC-27dB.wav,1.25,20,noResp,NA,W_1,stimuli/Baron6dB/070200.wav,stimuli/Hopper/030302.wav,stimuli/Tiger/050000.wav,NA,0,-27dB,Flat,W_1,1,0,1,0,0
10,stimuli/tones/PercTri-33dB.wav,0.75,21,noResp,NA,W_3,stimuli/Baron6dB/070202.wav,stimuli/Ringo/010002.wav,stimuli/Ringo/010300.wav,NA,0,-33dB,PercTri,W_3,1,0,1,0,0
10,stimuli/tones/PercTri-21dB.wav,2,22,noResp,NA,W_2,stimuli/Baron6dB/070201.wav,stimuli/Charlie/000103.wav,stimuli/Laker/020201.wav,NA,0,-21dB,PercTri,W_2,1,0,1,0,0
10,stimuli/tones/silence.wav,1.25,23,noResp,NA,R_3,stimuli/Baron6dB/070302.wav,stimuli/Hopper/030301.wav,stimuli/Tiger/050203.wav,NA,1,silence,silence,G_3,0,0,0,1,0
10,stimuli/tones/silence.wav,2,24,noResp,NA,B_3,stimuli/Baron6dB/070002.wav,stimuli/Charlie/000000.wav,stimuli/Tiger/050102.wav,NA,1,silence,silence,B_3,1,0,0,1,0
10,stimuli/tones/silence.wav,2,25,noResp,NA,G_2,stimuli/Baron6dB/070301.wav,stimuli/Eagle/060303.wav,stimuli/Charlie/000303.wav,NA,1,silence,silence,G_2,1,0,0,1,0
10,stimuli/tones/silence.wav,1.25,26,noResp,NA,W_2,stimuli/Baron6dB/070101.wav,stimuli/Hopper/030203.wav,stimuli/Laker/020002.wav,NA,1,silence,silence,R_2,0,0,0,1,0
10,stimuli/tones/PercTri-18dB.wav,2,27,noResp,NA,W_4,stimuli/Baron6dB/070203.wav,stimuli/Laker/020003.wav,stimuli/Arrow/040300.wav,NA,0,-18dB,PercTri,W_4,1,0,1,0,0
10,stimuli/tones/FlatIEC-21dB.wav,2,28,noResp,NA,G_1,stimuli/Baron6dB/070300.wav,stimuli/Tiger/050003.wav,stimuli/Laker/020003.wav,NA,0,-21dB,Flat,G_1,1,0,1,0,0
10,stimuli/tones/FlatIEC-33dB.wav,2,29,noResp,NA,W_3,stimuli/Baron6dB/070102.wav,stimuli/Eagle/060000.wav,stimuli/Charlie/000301.wav,NA,0,-33dB,Flat,R_3,0,0,1,0,0
10,stimuli/tones/silence.wav,0.75,30,noResp,NA,W_1,stimuli/Baron6dB/070100.wav,stimuli/Laker/020000.wav,stimuli/Hopper/030001.wav,NA,1,silence,silence,R_1,0,0,0,1,0
10,stimuli/tones/FlatIEC-27dB.wav,1.25,31,noResp,NA,R_2,stimuli/Baron6dB/070001.wav,stimuli/Hopper/030003.wav,stimuli/Charlie/000101.wav,NA,0,-27dB,Flat,B_2,0,0,1,0,0
10,stimuli/tones/silence.wav,0.75,32,noResp,NA,B_2,stimuli/Baron6dB/070001.wav,stimuli/Eagle/060201.wav,stimuli/Tiger/050303.wav,NA,1,silence,silence,B_2,1,0,0,1,0
10,stimuli/tones/PercTri-30dB.wav,1.25,33,noResp,NA,G_3,stimuli/Baron6dB/070302.wav,stimuli/Eagle/060301.wav,stimuli/Charlie/000103.wav,NA,0,-30dB,PercTri,G_3,1,0,1,0,0
10,stimuli/tones/silence.wav,0.75,34,noResp,NA,B_1,stimuli/Baron6dB/070000.wav,stimuli/Tiger/050100.wav,stimuli/Charlie/000300.wav,NA,1,silence,silence,B_1,1,0,0,1,0
10,stimuli/tones/silence.wav,0.75,35,noResp,NA,B_3,stimuli/Baron6dB/070002.wav,stimuli/Charlie/000001.wav,stimuli/Tiger/050001.wav,NA,1,silence,silence,B_3,1,0,0,1,0
10,stimuli/tones/FlatIEC-18dB.wav,1.25,36,noResp,NA,W_3,stimuli/Baron6dB/070102.wav,stimuli/Eagle/060103.wav,stimuli/Tiger/050301.wav,NA,0,-18dB,Flat,R_3,0,0,1,0,0
10,stimuli/tones/PercTri-24dB.wav,1.25,37,noResp,NA,W_4,stimuli/Baron6dB/070203.wav,stimuli/Ringo/010300.wav,stimuli/Hopper/030203.wav,NA,0,-24dB,PercTri,W_4,1,0,1,0,0
10,stimuli/tones/silence.wav,1.25,38,noResp,NA,B_4,stimuli/Baron6dB/070303.wav,stimuli/Hopper/030103.wav,stimuli/Eagle/060200.wav,NA,1,silence,silence,G_4,0,0,0,1,0
10,stimuli/tones/silence.wav,0.75,39,noResp,NA,W_1,stimuli/Baron6dB/070200.wav,stimuli/Charlie/000203.wav,stimuli/Ringo/010102.wav,NA,1,silence,silence,W_1,1,0,0,1,0
10,stimuli/tones/FlatIEC-27dB.wav,2,40,noResp,NA,G_2,stimuli/Baron6dB/070301.wav,stimuli/Laker/020001.wav,stimuli/Ringo/010003.wav,NA,0,-27dB,Flat,G_2,1,0,1,0,0
10,stimuli/tones/silence.wav,2,41,noResp,NA,R_2,stimuli/Baron6dB/070101.wav,stimuli/Arrow/040003.wav,stimuli/Hopper/030201.wav,NA,1,silence,silence,R_2,1,0,0,1,0
10,stimuli/tones/PercTri-18dB.wav,0.75,42,noResp,NA,W_2,stimuli/Baron6dB/070201.wav,stimuli/Ringo/010100.wav,stimuli/Laker/020203.wav,NA,0,-18dB,PercTri,W_2,1,0,1,0,0
10,stimuli/tones/silence.wav,2,43,noResp,NA,R_1,stimuli/Baron6dB/070100.wav,stimuli/Laker/020002.wav,stimuli/Charlie/000100.wav,NA,1,silence,silence,R_1,1,0,0,1,0
10,stimuli/tones/silence.wav,1.25,44,noResp,NA,B_4,stimuli/Baron6dB/070003.wav,stimuli/Charlie/000300.wav,stimuli/Laker/020001.wav,NA,1,silence,silence,B_4,1,0,0,1,0
10,stimuli/tones/silence.wav,1.25,45,noResp,NA,R_4,stimuli/Baron6dB/070103.wav,stimuli/Eagle/060100.wav,stimuli/Laker/020300.wav,NA,1,silence,silence,R_4,1,0,0,1,0
10,stimuli/tones/PercTri-24dB.wav,1.25,46,noResp,NA,W_3,stimuli/Baron6dB/070202.wav,stimuli/Arrow/040201.wav,stimuli/Eagle/060001.wav,NA,0,-24dB,PercTri,W_3,1,0,1,0,0
10,stimuli/tones/silence.wav,1.25,47,noResp,NA,G_1,stimuli/Baron6dB/070300.wav,stimuli/Tiger/050203.wav,stimuli/Hopper/030301.wav,NA,1,silence,silence,G_1,1,0,0,1,0
10,stimuli/tones/PercTri-27dB.wav,2,48,noResp,NA,W_4,stimuli/Baron6dB/070203.wav,stimuli/Tiger/050101.wav,stimuli/Arrow/040301.wav,NA,0,-27dB,PercTri,W_4,1,0,1,0,0
10,stimuli/tones/silence.wav,2,49,noResp,NA,G_1,stimuli/Baron6dB/070300.wav,stimuli/Arrow/040002.wav,stimuli/Eagle/060102.wav,NA,1,silence,silence,G_1,1,0,0,1,0
10,stimuli/tones/silence.wav,0.75,50,noResp,NA,W_1,stimuli/Baron6dB/070200.wav,stimuli/Laker/020201.wav,stimuli/Ringo/010001.wav,NA,1,silence,silence,W_1,1,0,0,1,0
10,stimuli/tones/PercTri-27dB.wav,0.75,51,noResp,NA,G_2,stimuli/Baron6dB/070301.wav,stimuli/Ringo/010202.wav,stimuli/Hopper/030202.wav,NA,0,-27dB,PercTri,G_2,1,0,1,0,0
10,stimuli/tones/silence.wav,2,52,noResp,NA,G_3,stimuli/Baron6dB/070302.wav,stimuli/Charlie/000003.wav,stimuli/Tiger/050103.wav,NA,1,silence,silence,G_3,1,0,0,1,0
10,stimuli/tones/FlatIEC-30dB.wav,2,53,noResp,NA,B_3,stimuli/Baron6dB/070102.wav,stimuli/Arrow/040303.wav,stimuli/Eagle/060202.wav,NA,0,-30dB,Flat,R_3,0,0,1,0,0
10,stimuli/tones/FlatIEC-24dB.wav,0.75,54,noResp,NA,B_3,stimuli/Baron6dB/070002.wav,stimuli/Charlie/000301.wav,stimuli/Ringo/010000.wav,NA,0,-24dB,Flat,B_3,1,0,1,0,0
10,stimuli/tones/FlatIEC-30dB.wav,1.25,55,noResp,NA,W_2,stimuli/Baron6dB/070201.wav,stimuli/Ringo/010101.wav,stimuli/Arrow/040002.wav,NA,0,-30dB,Flat,W_2,1,0,1,0,0
10,stimuli/tones/silence.wav,0.75,56,noResp,NA,B_1,stimuli/Baron6dB/070000.wav,stimuli/Arrow/040203.wav,stimuli/Eagle/060201.wav,NA,1,silence,silence,B_1,1,0,0,1,0
10,stimuli/tones/silence.wav,1.25,57,noResp,NA,G_4,stimuli/Baron6dB/070303.wav,stimuli/Tiger/050102.wav,stimuli/Eagle/060203.wav,NA,1,silence,silence,G_4,1,0,0,1,0
10,stimuli/tones/FlatIEC-21dB.wav,1.25,58,noResp,NA,W_3,stimuli/Baron6dB/070202.wav,stimuli/Hopper/030201.wav,stimuli/Charlie/000102.wav,NA,0,-21dB,Flat,W_3,1,0,1,0,0
10,stimuli/tones/FlatIEC-33dB.wav,0.75,59,noResp,NA,R_1,stimuli/Baron6dB/070100.wav,stimuli/Laker/020301.wav,stimuli/Eagle/060302.wav,NA,0,-33dB,Flat,R_1,1,0,1,0,0
10,stimuli/tones/silence.wav,1.25,60,noResp,NA,R_4,stimuli/Baron6dB/070103.wav,stimuli/Hopper/030002.wav,stimuli/Eagle/060002.wav,NA,1,silence,silence,R_4,1,0,0,1,0
10,stimuli/tones/silence.wav,2,61,noResp,NA,R_2,stimuli/Baron6dB/070101.wav,stimuli/Arrow/040300.wav,stimuli/Eagle/060003.wav,NA,1,silence,silence,R_2,1,0,0,1,0
10,stimuli/tones/FlatIEC-18dB.wav,0.75,62,noResp,NA,B_2,stimuli/Baron6dB/070001.wav,stimuli/Hopper/030300.wav,stimuli/Ringo/010303.wav,NA,0,-18dB,Flat,B_2,1,0,1,0,0
10,stimuli/tones/silence.wav,1.25,63,noResp,NA,B_4,stimuli/Baron6dB/070003.wav,stimuli/Arrow/040101.wav,stimuli/Arrow/040100.wav,NA,1,silence,silence,B_4,1,0,0,1,0
10,stimuli/tones/silence.wav,0.75,64,noResp,NA,G_1,stimuli/Baron6dB/070300.wav,stimuli/Eagle/060302.wav,stimuli/Arrow/040000.wav,NA,1,silence,silence,G_1,1,0,0,1,0
10,stimuli/tones/FlatIEC-33dB.wav,1.25,65,noResp,NA,R_1,stimuli/Baron6dB/070100.wav,stimuli/Ringo/010302.wav,stimuli/Tiger/050101.wav,NA,0,-33dB,Flat,R_1,1,0,1,0,0
10,stimuli/tones/silence.wav,2,66,noResp,NA,B_2,stimuli/Baron6dB/070001.wav,stimuli/Eagle/060002.wav,stimuli/Hopper/030300.wav,NA,1,silence,silence,B_2,1,0,0,1,0
10,stimuli/tones/PercTri-21dB.wav,1.25,67,noResp,NA,B_4,stimuli/Baron6dB/070203.wav,stimuli/Arrow/040102.wav,stimuli/Arrow/040102.wav,NA,0,-21dB,PercTri,W_4,0,0,1,0,0
10,stimuli/tones/FlatIEC-18dB.wav,2,68,noResp,NA,G_2,stimuli/Baron6dB/070301.wav,stimuli/Hopper/030303.wav,stimuli/Arrow/040001.wav,NA,0,-18dB,Flat,G_2,1,0,1,0,0
10,stimuli/tones/silence.wav,0.75,69,noResp,NA,B_3,stimuli/Baron6dB/070002.wav,stimuli/Charlie/000202.wav,stimuli/Ringo/010103.wav,NA,1,silence,silence,B_3,1,0,0,1,0
10,stimuli/tones/silence.wav,0.75,70,noResp,NA,B_4,stimuli/Baron6dB/070003.wav,stimuli/Eagle/060102.wav,stimuli/Ringo/010301.wav,NA,1,silence,silence,B_4,1,0,0,1,0
10,stimuli/tones/silence.wav,1.25,71,noResp,NA,W_3,stimuli/Baron6dB/070102.wav,stimuli/Tiger/050001.wav,stimuli/Charlie/000002.wav,NA,1,silence,silence,R_3,0,0,0,1,0
10,stimuli/tones/FlatIEC-30dB.wav,2,72,noResp,NA,R_4,stimuli/Baron6dB/070103.wav,stimuli/Arrow/040202.wav,stimuli/Eagle/060300.wav,NA,0,-30dB,Flat,R_4,1,0,1,0,0
10,stimuli/tones/silence.wav,2,73,noResp,NA,G_3,stimuli/Baron6dB/070302.wav,stimuli/Arrow/040302.wav,stimuli/Hopper/030102.wav,NA,1,silence,silence,G_3,1,0,0,1,0
10,stimuli/tones/silence.wav,0.75,74,noResp,NA,W_1,stimuli/Baron6dB/070200.wav,stimuli/Laker/020101.wav,stimuli/Arrow/040202.wav,NA,1,silence,silence,W_1,1,0,0,1,0
10,stimuli/tones/PercTri-33dB.wav,0.75,75,noResp,NA,B_1,stimuli/Baron6dB/070000.wav,stimuli/Charlie/000100.wav,stimuli/Ringo/010202.wav,NA,0,-33dB,PercTri,B_1,1,0,1,0,0
10,stimuli/tones/silence.wav,2,76,noResp,NA,W_3,stimuli/Baron6dB/070202.wav,stimuli/Ringo/010301.wav,stimuli/Arrow/040103.wav,NA,1,silence,silence,W_3,1,0,0,1,0
10,stimuli/tones/silence.wav,1.25,77,noResp,NA,R_2,stimuli/Baron6dB/070101.wav,stimuli/Laker/020303.wav,stimuli/Laker/020301.wav,NA,1,silence,silence,R_2,1,0,0,1,0
10,stimuli/tones/PercTri-21dB.wav,2,78,noResp,NA,W_2,stimuli/Baron6dB/070201.wav,stimuli/Arrow/040301.wav,stimuli/Hopper/030101.wav,NA,0,-21dB,PercTri,W_2,1,0,1,0,0
10,stimuli/tones/PercTri-33dB.wav,1.25,79,noResp,NA,G_4,stimuli/Baron6dB/070303.wav,stimuli/Ringo/010201.wav,stimuli/Tiger/050003.wav,NA,0,-33dB,PercTri,G_4,1,0,1,0,0
10,stimuli/tones/silence.wav,1.25,80,noResp,NA,B_4,stimuli/Baron6dB/070003.wav,stimuli/Ringo/010003.wav,stimuli/Laker/020202.wav,NA,1,silence,silence,B_4,1,0,0,1,0
10,stimuli/tones/FlatIEC-24dB.wav,2,81,noResp,NA,W_2,stimuli/Baron6dB/070201.wav,stimuli/Hopper/030202.wav,stimuli/Eagle/060103.wav,NA,0,-24dB,Flat,W_2,1,0,1,0,0
10,stimuli/tones/PercTri-24dB.wav,0.75,82,noResp,NA,R_4,stimuli/Baron6dB/070103.wav,stimuli/Arrow/040100.wav,stimuli/Laker/020200.wav,NA,0,-24dB,PercTri,R_4,1,0,1,0,0
10,stimuli/tones/silence.wav,1.25,83,noResp,NA,R_3,stimuli/Baron6dB/070102.wav,stimuli/Laker/020302.wav,stimuli/Ringo/010100.wav,NA,1,silence,silence,R_3,1,0,0,1,0
10,stimuli/tones/silence.wav,2,84,noResp,NA,R_4,stimuli/Baron6dB/070203.wav,stimuli/Laker/020300.wav,stimuli/Laker/020000.wav,NA,1,silence,silence,W_4,0,0,0,1,0
10,stimuli/tones/silence.wav,0.75,85,noResp,NA,W_1,stimuli/Baron6dB/070200.wav,stimuli/Arrow/040200.wav,stimuli/Eagle/060100.wav,NA,1,silence,silence,W_1,1,0,0,1,0
10,stimuli/tones/silence.wav,0.75,86,noResp,NA,B_1,stimuli/Baron6dB/070000.wav,stimuli/Ringo/010102.wav,stimuli/Hopper/030000.wav,NA,1,silence,silence,B_1,1,0,0,1,0
10,stimuli/tones/PercTri-21dB.wav,2,87,noResp,NA,R_2,stimuli/Baron6dB/070101.wav,stimuli/Tiger/050000.wav,stimuli/Tiger/050200.wav,NA,0,-21dB,PercTri,R_2,1,0,1,0,0
10,stimuli/tones/PercTri-30dB.wav,2,88,noResp,NA,G_4,stimuli/Baron6dB/070300.wav,stimuli/Eagle/060200.wav,stimuli/Laker/020302.wav,NA,0,-30dB,PercTri,G_1,0,0,1,0,0
10,stimuli/tones/PercTri-21dB.wav,0.75,89,noResp,NA,B_3,stimuli/Baron6dB/070002.wav,stimuli/Eagle/060001.wav,stimuli/Arrow/040302.wav,NA,0,-21dB,PercTri,B_3,1,0,1,0,0
10,stimuli/tones/PercTri-18dB.wav,1.25,90,noResp,NA,B_2,stimuli/Baron6dB/070001.wav,stimuli/Hopper/030100.wav,stimuli/Ringo/010200.wav,NA,0,-18dB,PercTri,B_2,1,0,1,0,0
10,stimuli/tones/silence.wav,2,91,noResp,NA,W_1,stimuli/Baron6dB/070100.wav,stimuli/Arrow/040103.wav,stimuli/Charlie/000201.wav,NA,1,silence,silence,R_1,0,0,0,1,0
10,stimuli/tones/silence.wav,0.75,92,noResp,NA,W_3,stimuli/Baron6dB/070302.wav,stimuli/Hopper/030200.wav,stimuli/Tiger/050002.wav,NA,1,silence,silence,G_3,0,0,0,1,0
10,stimuli/tones/FlatIEC-21dB.wav,0.75,93,noResp,NA,W_3,stimuli/Baron6dB/070202.wav,stimuli/Hopper/030001.wav,stimuli/Eagle/060303.wav,NA,0,-21dB,Flat,W_3,1,0,1,0,0
10,stimuli/tones/silence.wav,2,94,noResp,NA,G_2,stimuli/Baron6dB/070301.wav,stimuli/Charlie/000101.wav,stimuli/Charlie/000003.wav,NA,1,silence,silence,G_2,1,0,0,1,0
10,stimuli/tones/silence.wav,0.75,95,noResp,NA,G_4,stimuli/Baron6dB/070303.wav,stimuli/Ringo/010303.wav,stimuli/Ringo/010203.wav,NA,1,silence,silence,G_4,1,0,0,1,0
10,stimuli/tones/silence.wav,2,96,noResp,NA,B_4,stimuli/Baron6dB/070003.wav,stimuli/Charlie/000201.wav,stimuli/Charlie/000001.wav,NA,1,silence,silence,B_4,1,0,0,1,0
10,stimuli/tones/silence.wav,0.75,97,noResp,NA,W_3,stimuli/Baron6dB/070302.wav,stimuli/Laker/020203.wav,stimuli/Eagle/060101.wav,NA,1,silence,silence,G_3,0,0,0,1,0
10,stimuli/tones/FlatIEC-30dB.wav,0.75,98,noResp,NA,W_2,stimuli/Baron6dB/070201.wav,stimuli/Laker/020102.wav,stimuli/Hopper/030002.wav,NA,0,-30dB,Flat,W_2,1,0,1,0,0
10,stimuli/tones/PercTri-24dB.wav,2,99,noResp,NA,G_4,stimuli/Baron6dB/070303.wav,stimuli/Arrow/040000.wav,stimuli/Hopper/030003.wav,NA,0,-24dB,PercTri,G_4,1,0,1,0,0
10,stimuli/tones/silence.wav,1.25,100,noResp,NA,R_4,stimuli/Baron6dB/070103.wav,stimuli/Charlie/000303.wav,stimuli/Laker/020102.wav,NA,1,silence,silence,R_4,1,0,0,1,0
10,stimuli/tones/silence.wav,2,101,noResp,NA,W_3,stimuli/Baron6dB/070202.wav,stimuli/Eagle/060202.wav,stimuli/Charlie/000200.wav,NA,1,silence,silence,W_3,1,0,0,1,0
10,stimuli/tones/PercTri-33dB.wav,1.25,102,noResp,NA,G_2,stimuli/Baron6dB/070301.wav,stimuli/Tiger/050201.wav,stimuli/Arrow/040303.wav,NA,0,-33dB,PercTri,G_2,1,0,1,0,0
10,stimuli/tones/FlatIEC-18dB.wav,1.25,103,noResp,NA,W_1,stimuli/Baron6dB/070100.wav,stimuli/Eagle/060003.wav,stimuli/Arrow/040200.wav,NA,0,-18dB,Flat,R_1,0,0,1,0,0
10,stimuli/tones/PercTri-18dB.wav,0.75,104,noResp,NA,W_2,stimuli/Baron6dB/070203.wav,stimuli/Hopper/030101.wav,stimuli/Arrow/040201.wav,NA,0,-18dB,PercTri,W_4,0,0,1,0,0
10,stimuli/tones/silence.wav,2,105,noResp,NA,G_1,stimuli/Baron6dB/070300.wav,stimuli/Charlie/000302.wav,stimuli/Eagle/060301.wav,NA,1,silence,silence,G_1,1,0,0,1,0
10,stimuli/tones/silence.wav,2,106,noResp,NA,B_3,stimuli/Baron6dB/070002.wav,stimuli/Charlie/000102.wav,stimuli/Laker/020100.wav,NA,1,silence,silence,B_3,1,0,0,1,0
10,stimuli/tones/FlatIEC-21dB.wav,1.25,107,noResp,NA,B_1,stimuli/Baron6dB/070000.wav,stimuli/Tiger/050002.wav,stimuli/Arrow/040003.wav,NA,0,-21dB,Flat,B_1,1,0,1,0,0
10,stimuli/tones/PercTri-24dB.wav,2,108,noResp,NA,W_1,stimuli/Baron6dB/070200.wav,stimuli/Tiger/050202.wav,stimuli/Hopper/030303.wav,NA,0,-24dB,PercTri,W_1,1,0,1,0,0
10,stimuli/tones/silence.wav,1.25,109,noResp,NA,B_2,stimuli/Baron6dB/070001.wav,stimuli/Tiger/050200.wav,stimuli/Charlie/000203.wav,NA,1,silence,silence,B_2,1,0,0,1,0
10,stimuli/tones/silence.wav,1.25,110,noResp,NA,R_3,stimuli/Baron6dB/070102.wav,stimuli/Ringo/010000.wav,stimuli/Laker/020103.wav,NA,1,silence,silence,R_3,1,0,0,1,0
10,stimuli/tones/FlatIEC-18dB.wav,2,111,noResp,NA,R_2,stimuli/Baron6dB/070101.wav,stimuli/Tiger/050302.wav,stimuli/Arrow/040101.wav,NA,0,-18dB,Flat,R_2,1,0,1,0,0
10,stimuli/tones/PercTri-33dB.wav,1.25,112,noResp,NA,W_4,stimuli/Baron6dB/070203.wav,stimuli/Tiger/050102.wav,stimuli/Hopper/030003.wav,NA,0,-33dB,PercTri,W_4,1,0,1,0,0
10,stimuli/tones/PercTri-27dB.wav,1.25,113,noResp,NA,B_1,stimuli/Baron6dB/070000.wav,stimuli/Charlie/000003.wav,stimuli/Laker/020301.wav,NA,0,-27dB,PercTri,B_1,1,0,1,0,0
10,stimuli/tones/silence.wav,0.75,114,noResp,NA,B_2,stimuli/Baron6dB/070001.wav,stimuli/Tiger/050300.wav,stimuli/Eagle/060202.wav,NA,1,silence,silence,B_2,1,0,0,1,0
10,stimuli/tones/FlatIEC-21dB.wav,0.75,115,noResp,NA,G_4,stimuli/Baron6dB/070303.wav,stimuli/Ringo/010201.wav,stimuli/Tiger/050301.wav,NA,0,-21dB,Flat,G_4,1,0,1,0,0
10,stimuli/tones/silence.wav,2,116,noResp,NA,G_2,stimuli/Baron6dB/070301.wav,stimuli/Ringo/010200.wav,stimuli/Arrow/040202.wav,NA,1,silence,silence,G_2,1,0,0,1,0
10,stimuli/tones/FlatIEC-30dB.wav,0.75,117,noResp,NA,B_4,stimuli/Baron6dB/070003.wav,stimuli/Ringo/010103.wav,stimuli/Tiger/050203.wav,NA,0,-30dB,Flat,B_4,1,0,1,0,0
10,stimuli/tones/PercTri-18dB.wav,2,118,noResp,NA,R_2,stimuli/Baron6dB/070101.wav,stimuli/Laker/020300.wav,stimuli/Tiger/050102.wav,NA,0,-18dB,PercTri,R_2,1,0,1,0,0
10,stimuli/tones/silence.wav,0.75,119,noResp,NA,W_1,stimuli/Baron6dB/070100.wav,stimuli/Arrow/040302.wav,stimuli/Hopper/030201.wav,NA,1,silence,silence,R_1,0,0,0,1,0
10,stimuli/tones/PercTri-27dB.wav,1.25,120,noResp,NA,W_3,stimuli/Baron6dB/070202.wav,stimuli/Eagle/060302.wav,stimuli/Eagle/060103.wav,NA,0,-27dB,PercTri,W_3,1,0,1,0,0
10,stimuli/tones/FlatIEC-27dB.wav,0.75,121,noResp,NA,G_1,stimuli/Baron6dB/070300.wav,stimuli/Laker/020203.wav,stimuli/Hopper/030302.wav,NA,0,-27dB,Flat,G_1,1,0,1,0,0
10,stimuli/tones/silence.wav,2,122,noResp,NA,W_3,stimuli/Baron6dB/070102.wav,stimuli/Tiger/050302.wav,stimuli/Ringo/010302.wav,NA,1,silence,silence,R_3,0,0,0,1,0
10,stimuli/tones/FlatIEC-33dB.wav,0.75,123,noResp,NA,W_2,stimuli/Baron6dB/070201.wav,stimuli/Arrow/040201.wav,stimuli/Ringo/010201.wav,NA,0,-33dB,Flat,W_2,1,0,1,0,0
10,stimuli/tones/FlatIEC-33dB.wav,1.25,124,noResp,NA,G_3,stimuli/Baron6dB/070302.wav,stimuli/Laker/020101.wav,stimuli/Arrow/040200.wav,NA,0,-33dB,Flat,G_3,1,0,1,0,0
10,stimuli/tones/PercTri-33dB.wav,2,125,noResp,NA,R_4,stimuli/Baron6dB/070103.wav,stimuli/Hopper/030001.wav,stimuli/Arrow/040001.wav,NA,0,-33dB,PercTri,R_4,1,0,1,0,0
10,stimuli/tones/PercTri-24dB.wav,0.75,126,noResp,NA,W_1,stimuli/Baron6dB/070200.wav,stimuli/Tiger/050103.wav,stimuli/Charlie/000202.wav,NA,0,-24dB,PercTri,W_1,1,0,1,0,0
10,stimuli/tones/FlatIEC-27dB.wav,2,127,noResp,NA,B_3,stimuli/Baron6dB/070002.wav,stimuli/Arrow/040200.wav,stimuli/Arrow/040003.wav,NA,0,-27dB,Flat,B_3,1,0,1,0,0
10,stimuli/tones/PercTri-18dB.wav,1.25,128,noResp,NA,W_3,stimuli/Baron6dB/070102.wav,stimuli/Ringo/010102.wav,stimuli/Tiger/050302.wav,NA,0,-18dB,PercTri,R_3,0,0,1,0,0
10,stimuli/tones/silence.wav,2,129,noResp,NA,G_3,stimuli/Baron6dB/070302.wav,stimuli/Eagle/060202.wav,stimuli/Laker/020001.wav,NA,1,silence,silence,G_3,1,0,0,1,0
10,stimuli/tones/FlatIEC-30dB.wav,1.25,130,noResp,NA,G_1,stimuli/Baron6dB/070300.wav,stimuli/Ringo/010001.wav,stimuli/Eagle/060100.wav,NA,0,-30dB,Flat,G_1,1,0,1,0,0
10,stimuli/tones/silence.wav,1.25,131,noResp,NA,G_4,stimuli/Baron6dB/070303.wav,stimuli/Hopper/030002.wav,stimuli/Eagle/060203.wav,NA,1,silence,silence,G_4,1,0,0,1,0
10,stimuli/tones/silence.wav,1.25,132,noResp,NA,B_3,stimuli/Baron6dB/070002.wav,stimuli/Charlie/000103.wav,stimuli/Ringo/010301.wav,NA,1,silence,silence,B_3,1,0,0,1,0
10,stimuli/tones/PercTri-27dB.wav,1.25,133,noResp,NA,W_2,stimuli/Baron6dB/070201.wav,stimuli/Charlie/000201.wav,stimuli/Charlie/000201.wav,NA,0,-27dB,PercTri,W_2,1,0,1,0,0
10,stimuli/tones/silence.wav,0.75,134,noResp,NA,B_1,stimuli/Baron6dB/070000.wav,stimuli/Ringo/010101.wav,stimuli/Hopper/030301.wav,NA,1,silence,silence,B_1,1,0,0,1,0
10,stimuli/tones/PercTri-18dB.wav,1.25,135,noResp,NA,W_4,stimuli/Baron6dB/070203.wav,stimuli/Tiger/050201.wav,stimuli/Hopper/030303.wav,NA,0,-18dB,PercTri,W_4,1,0,1,0,0
10,stimuli/tones/FlatIEC-18dB.wav,1.25,136,noResp,NA,G_2,stimuli/Baron6dB/070301.wav,stimuli/Arrow/040101.wav,stimuli/Arrow/040300.wav,NA,0,-18dB,Flat,G_2,1,0,1,0,0
10,stimuli/tones/FlatIEC-21dB.wav,0.75,137,noResp,NA,B_4,stimuli/Baron6dB/070003.wav,stimuli/Hopper/030000.wav,stimuli/Ringo/010200.wav,NA,0,-21dB,Flat,B_4,1,0,1,0,0
10,stimuli/tones/FlatIEC-18dB.wav,2,138,noResp,NA,W_1,stimuli/Baron6dB/070200.wav,stimuli/Charlie/000001.wav,stimuli/Laker/020303.wav,NA,0,-18dB,Flat,W_1,1,0,1,0,0
10,stimuli/tones/silence.wav,2,139,noResp,NA,R_2,stimuli/Baron6dB/070101.wav,stimuli/Eagle/060100.wav,stimuli/Eagle/060000.wav,NA,1,silence,silence,R_2,1,0,0,1,0
10,stimuli/tones/silence.wav,2,140,noResp,NA,W_4,stimuli/Baron6dB/070103.wav,stimuli/Laker/020100.wav,stimuli/Ringo/010303.wav,NA,1,silence,silence,R_4,0,0,0,1,0
10,stimuli/tones/FlatIEC-33dB.wav,0.75,141,noResp,NA,B_2,stimuli/Baron6dB/070001.wav,stimuli/Arrow/040300.wav,stimuli/Laker/020103.wav,NA,0,-33dB,Flat,B_2,1,0,1,0,0
10,stimuli/tones/silence.wav,0.75,142,noResp,NA,R_1,stimuli/Baron6dB/070100.wav,stimuli/Arrow/040102.wav,stimuli/Hopper/030002.wav,NA,1,silence,silence,R_1,1,0,0,1,0
10,stimuli/tones/PercTri-33dB.wav,2,143,noResp,NA,W_3,stimuli/Baron6dB/070202.wav,stimuli/Ringo/010202.wav,stimuli/Tiger/050201.wav,NA,0,-33dB,PercTri,W_3,1,0,1,0,0
10,stimuli/tones/silence.wav,0.75,144,noResp,NA,W_1,stimuli/Baron6dB/070100.wav,stimuli/Eagle/060103.wav,stimuli/Ringo/010101.wav,NA,1,silence,silence,R_1,0,0,0,1,0
10,stimuli/tones/silence.wav,0.75,145,noResp,NA,W_2,stimuli/Baron6dB/070101.wav,stimuli/Tiger/050000.wav,stimuli/Ringo/010003.wav,NA,1,silence,silence,R_2,0,0,0,1,0
10,stimuli/tones/PercTri-27dB.wav,0.75,146,noResp,NA,G_2,stimuli/Baron6dB/070301.wav,stimuli/Charlie/000202.wav,stimuli/Eagle/060302.wav,NA,0,-27dB,PercTri,G_2,1,0,1,0,0
10,stimuli/tones/silence.wav,1.25,147,noResp,NA,W_3,stimuli/Baron6dB/070102.wav,stimuli/Arrow/040301.wav,stimuli/Ringo/010102.wav,NA,1,silence,silence,R_3,0,0,0,1,0
10,stimuli/tones/FlatIEC-24dB.wav,0.75,148,noResp,NA,W_1,stimuli/Baron6dB/070200.wav,stimuli/Charlie/000300.wav,stimuli/Charlie/000102.wav,NA,0,-24dB,Flat,W_1,1,0,1,0,0
10,stimuli/tones/silence.wav,1.25,149,noResp,NA,B_2,stimuli/Baron6dB/070001.wav,stimuli/Hopper/030100.wav,stimuli/Laker/020202.wav,NA,1,silence,silence,B_2,1,0,0,1,0
10,stimuli/tones/PercTri-30dB.wav,0.75,150,noResp,NA,R_4,stimuli/Baron6dB/070103.wav,stimuli/Laker/020302.wav,stimuli/Tiger/050303.wav,NA,0,-30dB,PercTri,R_4,1,0,1,0,0
10,stimuli/tones/FlatIEC-24dB.wav,1.25,151,noResp,NA,W_3,stimuli/Baron6dB/070202.wav,stimuli/Eagle/060001.wav,stimuli/Charlie/000001.wav,NA,0,-24dB,Flat,W_3,1,0,1,0,0
10,stimuli/tones/silence.wav,2,152,noResp,NA,G_4,stimuli/Baron6dB/070303.wav,stimuli/Tiger/050003.wav,stimuli/Charlie/000203.wav,NA,1,silence,silence,G_4,1,0,0,1,0
10,stimuli/tones/PercTri-24dB.wav,1.25,153,noResp,NA,B_4,stimuli/Baron6dB/070003.wav,stimuli/Hopper/030102.wav,stimuli/Charlie/000303.wav,NA,0,-24dB,PercTri,B_4,1,0,1,0,0
10,stimuli/tones/silence.wav,1.25,154,noResp,NA,R_2,stimuli/Baron6dB/070302.wav,stimuli/Eagle/060303.wav,stimuli/Tiger/050001.wav,NA,1,silence,silence,G_3,0,0,0,1,0
10,stimuli/tones/FlatIEC-24dB.wav,2,155,noResp,NA,G_1,stimuli/Baron6dB/070300.wav,stimuli/Hopper/030301.wav,stimuli/Charlie/000101.wav,NA,0,-24dB,Flat,G_1,1,0,1,0,0
10,stimuli/tones/silence.wav,0.75,156,noResp,NA,B_1,stimuli/Baron6dB/070000.wav,stimuli/Ringo/010100.wav,stimuli/Eagle/060102.wav,NA,1,silence,silence,B_1,1,0,0,1,0
10,stimuli/tones/FlatIEC-18dB.wav,0.75,157,noResp,NA,W_2,stimuli/Baron6dB/070201.wav,stimuli/Charlie/000101.wav,stimuli/Eagle/060001.wav,NA,0,-18dB,Flat,W_2,1,0,1,0,0
10,stimuli/tones/PercTri-21dB.wav,0.75,158,noResp,NA,B_3,stimuli/Baron6dB/070002.wav,stimuli/Laker/020202.wav,stimuli/Ringo/010100.wav,NA,0,-21dB,PercTri,B_3,1,0,1,0,0
10,stimuli/tones/silence.wav,1.25,159,noResp,NA,W_4,stimuli/Baron6dB/070203.wav,stimuli/Tiger/050100.wav,stimuli/Charlie/000100.wav,NA,1,silence,silence,W_4,1,0,0,1,0
10,stimuli/tones/FlatIEC-21dB.wav,2,160,noResp,NA,G_2,stimuli/Baron6dB/070301.wav,stimuli/Eagle/060102.wav,stimuli/Eagle/060101.wav,NA,0,-21dB,Flat,G_2,1,0,1,0,0
10,stimuli/tones/PercTri-24dB.wav,2,161,noResp,NA,R_1,stimuli/Baron6dB/070000.wav,stimuli/Eagle/060301.wav,stimuli/Tiger/050003.wav,NA,0,-24dB,PercTri,B_1,0,0,1,0,0
10,stimuli/tones/FlatIEC-30dB.wav,1.25,162,noResp,NA,W_1,stimuli/Baron6dB/070200.wav,stimuli/Hopper/030103.wav,stimuli/Arrow/040100.wav,NA,0,-30dB,Flat,W_1,1,0,1,0,0
10,stimuli/tones/PercTri-30dB.wav,1.25,163,noResp,NA,B_2,stimuli/Baron6dB/070001.wav,stimuli/Laker/020002.wav,stimuli/Charlie/000200.wav,NA,0,-30dB,PercTri,B_2,1,0,1,0,0
10,stimuli/tones/PercTri-30dB.wav,0.75,164,noResp,NA,R_4,stimuli/Baron6dB/070103.wav,stimuli/Hopper/030003.wav,stimuli/Laker/020300.wav,NA,0,-30dB,PercTri,R_4,1,0,1,0,0
10,stimuli/tones/PercTri-24dB.wav,0.75,165,noResp,NA,W_3,stimuli/Baron6dB/070202.wav,stimuli/Tiger/050101.wav,stimuli/Tiger/050000.wav,NA,0,-24dB,PercTri,W_3,1,0,1,0,0
10,stimuli/tones/silence.wav,2,166,noResp,NA,R_1,stimuli/Baron6dB/070100.wav,stimuli/Eagle/060201.wav,stimuli/Arrow/040203.wav,NA,1,silence,silence,R_1,1,0,0,1,0
10,stimuli/tones/silence.wav,1.25,167,noResp,NA,W_4,stimuli/Baron6dB/070203.wav,stimuli/Charlie/000100.wav,stimuli/Laker/020003.wav,NA,1,silence,silence,W_4,1,0,0,1,0
10,stimuli/tones/silence.wav,2,168,noResp,NA,R_2,stimuli/Baron6dB/070101.wav,stimuli/Tiger/050202.wav,stimuli/Hopper/030000.wav,NA,1,silence,silence,R_2,1,0,0,1,0
10,stimuli/tones/FlatIEC-27dB.wav,2,169,noResp,NA,G_1,stimuli/Baron6dB/070300.wav,stimuli/Arrow/040203.wav,stimuli/Laker/020002.wav,NA,0,-27dB,Flat,G_1,1,0,1,0,0
10,stimuli/tones/silence.wav,1.25,170,noResp,NA,B_3,stimuli/Baron6dB/070002.wav,stimuli/Ringo/010002.wav,stimuli/Ringo/010002.wav,NA,1,silence,silence,B_3,1,0,0,1,0
10,stimuli/tones/PercTri-21dB.wav,0.75,171,noResp,NA,G_3,stimuli/Baron6dB/070302.wav,stimuli/Laker/020102.wav,stimuli/Charlie/000302.wav,NA,0,-21dB,PercTri,G_3,1,0,1,0,0
10,stimuli/tones/PercTri-27dB.wav,0.75,172,noResp,NA,B_4,stimuli/Baron6dB/070303.wav,stimuli/Ringo/010203.wav,stimuli/Arrow/040102.wav,NA,0,-27dB,PercTri,G_4,0,0,1,0,0
10,stimuli/tones/silence.wav,1.25,173,noResp,NA,W_2,stimuli/Baron6dB/070201.wav,stimuli/Arrow/040000.wav,stimuli/Arrow/040301.wav,NA,1,silence,silence,W_2,1,0,0,1,0
10,stimuli/tones/silence.wav,1.25,174,noResp,NA,B_4,stimuli/Baron6dB/070003.wav,stimuli/Tiger/050303.wav,stimuli/Ringo/010300.wav,NA,1,silence,silence,B_4,1,0,0,1,0
10,stimuli/tones/FlatIEC-21dB.wav,1.25,175,noResp,NA,R_3,stimuli/Baron6dB/070102.wav,stimuli/Eagle/060002.wav,stimuli/Laker/020203.wav,NA,0,-21dB,Flat,R_3,1,0,1,0,0
10,stimuli/tones/FlatIEC-33dB.wav,2,176,noResp,NA,G_4,stimuli/Baron6dB/070303.wav,stimuli/Ringo/010000.wav,stimuli/Laker/020302.wav,NA,0,-33dB,Flat,G_4,1,0,1,0,0
10,stimuli/tones/silence.wav,2,177,noResp,NA,B_1,stimuli/Baron6dB/070000.wav,stimuli/Tiger/050001.wav,stimuli/Laker/020201.wav,NA,1,silence,silence,B_1,1,0,0,1,0
10,stimuli/tones/PercTri-33dB.wav,0.75,178,noResp,NA,G_3,stimuli/Baron6dB/070302.wav,stimuli/Charlie/000002.wav,stimuli/Laker/020102.wav,NA,0,-33dB,PercTri,G_3,1,0,1,0,0
10,stimuli/tones/PercTri-30dB.wav,2,179,noResp,NA,R_4,stimuli/Baron6dB/070103.wav,stimuli/Charlie/000200.wav,stimuli/Arrow/040302.wav,NA,0,-30dB,PercTri,R_4,1,0,1,0,0
10,stimuli/tones/FlatIEC-27dB.wav,0.75,180,noResp,NA,R_1,stimuli/Baron6dB/070100.wav,stimuli/Laker/020303.wav,stimuli/Hopper/030300.wav,NA,0,-27dB,Flat,R_1,1,0,1,0,0
10,stimuli/tones/silence.wav,0.75,181,noResp,NA,W_2,stimuli/Baron6dB/070201.wav,stimuli/Charlie/000102.wav,stimuli/Ringo/010000.wav,NA,1,silence,silence,W_2,1,0,0,1,0
10,stimuli/tones/silence.wav,1.25,182,noResp,NA,W_4,stimuli/Baron6dB/070203.wav,stimuli/Hopper/030303.wav,stimuli/Hopper/030202.wav,NA,1,silence,silence,W_4,1,0,0,1,0
10,stimuli/tones/silence.wav,0.75,183,noResp,NA,B_2,stimuli/Baron6dB/070001.wav,stimuli/Eagle/060300.wav,stimuli/Eagle/060002.wav,NA,1,silence,silence,B_2,1,0,0,1,0
10,stimuli/tones/silence.wav,2,184,noResp,NA,W_1,stimuli/Baron6dB/070200.wav,stimuli/Laker/020000.wav,stimuli/Charlie/000002.wav,NA,1,silence,silence,W_1,1,0,0,1,0
10,stimuli/tones/silence.wav,0.75,185,noResp,NA,B_3,stimuli/Baron6dB/070002.wav,stimuli/Laker/020201.wav,stimuli/Charlie/000000.wav,NA,1,silence,silence,B_3,1,0,0,1,0
10,stimuli/tones/silence.wav,1.25,186,noResp,NA,R_3,stimuli/Baron6dB/070102.wav,stimuli/Arrow/040202.wav,stimuli/Charlie/000003.wav,NA,1,silence,silence,R_3,1,0,0,1,0
10,stimuli/tones/silence.wav,2,187,noResp,NA,G_2,stimuli/Baron6dB/070301.wav,stimuli/Charlie/000302.wav,stimuli/Eagle/060301.wav,NA,1,silence,silence,G_2,1,0,0,1,0
10,stimuli/tones/silence.wav,1.25,188,noResp,NA,B_4,stimuli/Baron6dB/070003.wav,stimuli/Laker/020301.wav,stimuli/Arrow/040000.wav,NA,1,silence,silence,B_4,1,0,0,1,0
10,stimuli/tones/silence.wav,2,189,noResp,NA,R_2,stimuli/Baron6dB/070101.wav,stimuli/Charlie/000000.wav,stimuli/Ringo/010103.wav,NA,1,silence,silence,R_2,1,0,0,1,0
10,stimuli/tones/PercTri-18dB.wav,2,190,noResp,NA,W_3,stimuli/Baron6dB/070202.wav,stimuli/Charlie/000301.wav,stimuli/Arrow/040303.wav,NA,0,-18dB,PercTri,W_3,1,0,1,0,0
10,stimuli/tones/FlatIEC-33dB.wav,2,191,noResp,NA,G_1,stimuli/Baron6dB/070300.wav,stimuli/Hopper/030302.wav,stimuli/Laker/020101.wav,NA,0,-33dB,Flat,G_1,1,0,1,0,0
10,stimuli/tones/silence.wav,1.25,192,noResp,NA,R_4,stimuli/Baron6dB/070103.wav,stimuli/Hopper/030101.wav,stimuli/Laker/020200.wav,NA,1,silence,silence,R_4,1,0,0,1,0
10,stimuli/tones/silence.wav,0.75,193,noResp,NA,W_3,stimuli/Baron6dB/070202.wav,stimuli/Hopper/030203.wav,stimuli/Charlie/000301.wav,NA,1,silence,silence,W_3,1,0,0,1,0
10,stimuli/tones/silence.wav,2,194,noResp,NA,G_2,stimuli/Baron6dB/070301.wav,stimuli/Arrow/040003.wav,stimuli/Tiger/050202.wav,NA,1,silence,silence,G_2,1,0,0,1,0
10,stimuli/tones/silence.wav,2,195,noResp,NA,G_1,stimuli/Baron6dB/070300.wav,stimuli/Tiger/050002.wav,stimuli/Charlie/000103.wav,NA,1,silence,silence,G_1,1,0,0,1,0
10,stimuli/tones/silence.wav,2,196,noResp,NA,R_1,stimuli/Baron6dB/070100.wav,stimuli/Hopper/030201.wav,stimuli/Eagle/060303.wav,NA,1,silence,silence,R_1,1,0,0,1,0
10,stimuli/tones/PercTri-18dB.wav,0.75,197,noResp,NA,B_2,stimuli/Baron6dB/070001.wav,stimuli/Charlie/000303.wav,stimuli/Hopper/030100.wav,NA,0,-18dB,PercTri,B_2,1,0,1,0,0
10,stimuli/tones/silence.wav,1.25,198,noResp,NA,R_3,stimuli/Baron6dB/070302.wav,stimuli/Ringo/010300.wav,stimuli/Tiger/050101.wav,NA,1,silence,silence,G_3,0,0,0,1,0
10,stimuli/tones/silence.wav,2,199,noResp,NA,W_2,stimuli/Baron6dB/070101.wav,stimuli/Laker/020003.wav,stimuli/Tiger/050002.wav,NA,1,silence,silence,R_2,0,0,0,1,0
10,stimuli/tones/silence.wav,0.75,200,noResp,NA,B_1,stimuli/Baron6dB/070000.wav,stimuli/Eagle/060203.wav,stimuli/Arrow/040201.wav,NA,1,silence,silence,B_1,1,0,0,1,0
10,stimuli/tones/PercTri-30dB.wav,0.75,201,noResp,NA,G_4,stimuli/Baron6dB/070303.wav,stimuli/Ringo/010003.wav,stimuli/Arrow/040101.wav,NA,0,-30dB,PercTri,G_4,1,0,1,0,0
10,stimuli/tones/silence.wav,1.25,202,noResp,NA,B_3,stimuli/Baron6dB/070002.wav,stimuli/Ringo/010302.wav,stimuli/Arrow/040002.wav,NA,1,silence,silence,B_3,1,0,0,1,0
10,stimuli/tones/FlatIEC-18dB.wav,0.75,203,noResp,NA,W_1,stimuli/Baron6dB/070102.wav,stimuli/Laker/020200.wav,stimuli/Eagle/060200.wav,NA,0,-18dB,Flat,R_3,0,0,1,0,0
10,stimuli/tones/silence.wav,0.75,204,noResp,NA,W_1,stimuli/Baron6dB/070200.wav,stimuli/Eagle/060200.wav,stimuli/Eagle/060201.wav,NA,1,silence,silence,W_1,1,0,0,1,0
10,stimuli/tones/FlatIEC-24dB.wav,1.25,205,noResp,NA,W_4,stimuli/Baron6dB/070203.wav,stimuli/Arrow/040303.wav,stimuli/Eagle/060003.wav,NA,0,-24dB,Flat,W_4,1,0,1,0,0
10,stimuli/tones/silence.wav,1.25,206,noResp,NA,W_2,stimuli/Baron6dB/070201.wav,stimuli/Ringo/010301.wav,stimuli/Charlie/000300.wav,NA,1,silence,silence,W_2,1,0,0,1,0
10,stimuli/tones/FlatIEC-33dB.wav,1.25,207,noResp,NA,B_4,stimuli/Baron6dB/070003.wav,stimuli/Ringo/010303.wav,stimuli/Ringo/010203.wav,NA,0,-33dB,Flat,B_4,1,0,1,0,0
10,stimuli/tones/silence.wav,2,208,noResp,NA,R_4,stimuli/Baron6dB/070103.wav,stimuli/Eagle/060003.wav,stimuli/Hopper/030001.wav,NA,1,silence,silence,R_4,1,0,0,1,0
10,stimuli/tones/silence.wav,0.75,209,noResp,NA,R_1,stimuli/Baron6dB/070100.wav,stimuli/Arrow/040001.wav,stimuli/Hopper/030203.wav,NA,1,silence,silence,R_1,1,0,0,1,0
10,stimuli/tones/silence.wav,0.75,210,noResp,NA,W_3,stimuli/Baron6dB/070202.wav,stimuli/Laker/020001.wav,stimuli/Hopper/030103.wav,NA,1,silence,silence,W_3,1,0,0,1,0
10,stimuli/tones/PercTri-27dB.wav,2,211,noResp,NA,R_2,stimuli/Baron6dB/070302.wav,stimuli/Hopper/030300.wav,stimuli/Tiger/050100.wav,NA,0,-27dB,PercTri,G_3,0,0,1,0,0
10,stimuli/tones/PercTri-30dB.wav,1.25,212,noResp,NA,R_3,stimuli/Baron6dB/070102.wav,stimuli/Tiger/050200.wav,stimuli/Tiger/050300.wav,NA,0,-30dB,PercTri,R_3,1,0,1,0,0
10,stimuli/tones/FlatIEC-21dB.wav,2,213,noResp,NA,B_2,stimuli/Baron6dB/070001.wav,stimuli/Charlie/000203.wav,stimuli/Arrow/040103.wav,NA,0,-21dB,Flat,B_2,1,0,1,0,0
10,stimuli/tones/PercTri-21dB.wav,1.25,214,noResp,NA,B_4,stimuli/Baron6dB/070003.wav,stimuli/Tiger/050203.wav,stimuli/Eagle/060300.wav,NA,0,-21dB,PercTri,B_4,1,0,1,0,0
10,stimuli/tones/PercTri-21dB.wav,1.25,215,noResp,NA,G_2,stimuli/Baron6dB/070301.wav,stimuli/Arrow/040103.wav,stimuli/Hopper/030200.wav,NA,0,-21dB,PercTri,G_2,1,0,1,0,0
11,stimuli/tones/PercTri-33dB.wav,1.25,0,space,2.0458,B_2,stimuli/Baron6dB/070303.wav,stimuli/Ringo/010001.wav,stimuli/Ringo/010001.wav,NA,1,-33dB,PercTri,G_4,0,1,0,0,0
11,stimuli/tones/PercTri-21dB.wav,1.25,1,space,2.7164,B_1,stimuli/Baron6dB/070000.wav,stimuli/Tiger/050103.wav,stimuli/Eagle/060103.wav,NA,1,-21dB,PercTri,B_1,1,1,0,0,0
11,stimuli/tones/silence.wav,0.75,2,noResp,NA,W_2,stimuli/Baron6dB/070201.wav,stimuli/Arrow/040200.wav,stimuli/Laker/020200.wav,NA,1,silence,silence,W_2,1,0,0,1,0
11,stimuli/tones/silence.wav,0.75,3,noResp,NA,W_1,stimuli/Baron6dB/070100.wav,stimuli/Arrow/040303.wav,stimuli/Arrow/040101.wav,NA,1,silence,silence,R_1,0,0,0,1,0
11,stimuli/tones/PercTri-33dB.wav,0.75,4,space,1.3828,B_3,stimuli/Baron6dB/070002.wav,stimuli/Arrow/040000.wav,stimuli/Arrow/040200.wav,NA,1,-33dB,PercTri,B_3,1,1,0,0,0
11,stimuli/tones/FlatIEC-27dB.wav,0.75,5,noResp,NA,W_3,stimuli/Baron6dB/070103.wav,stimuli/Tiger/050201.wav,stimuli/Eagle/060202.wav,NA,0,-27dB,Flat,R_4,0,0,1,0,0
11,stimuli/tones/FlatIEC-33dB.wav,1.25,6,noResp,NA,B_2,stimuli/Baron6dB/070001.wav,stimuli/Arrow/040002.wav,stimuli/Eagle/060302.wav,NA,0,-33dB,Flat,B_2,1,0,1,0,0
11,stimuli/tones/silence.wav,0.75,7,noResp,NA,W_4,stimuli/Baron6dB/070203.wav,stimuli/Eagle/060003.wav,stimuli/Tiger/050302.wav,NA,1,silence,silence,W_4,1,0,0,1,0
11,stimuli/tones/FlatIEC-27dB.wav,2,8,noResp,NA,W_3,stimuli/Baron6dB/070102.wav,stimuli/Ringo/010103.wav,stimuli/Tiger/050202.wav,NA,0,-27dB,Flat,R_3,0,0,1,0,0
11,stimuli/tones/PercTri-30dB.wav,2,9,space,0.0295,B_1,stimuli/Baron6dB/070300.wav,stimuli/Laker/020003.wav,stimuli/Tiger/050201.wav,NA,1,-30dB,PercTri,G_1,0,1,0,0,0
11,stimuli/tones/silence.wav,0.75,10,space,0.0995,R_2,stimuli/Baron6dB/070101.wav,stimuli/Arrow/040203.wav,stimuli/Hopper/030201.wav,NA,0,silence,silence,R_2,1,0,0,0,1
11,stimuli/tones/silence.wav,1.25,11,noResp,NA,G_2,stimuli/Baron6dB/070301.wav,stimuli/Laker/020202.wav,stimuli/Eagle/060100.wav,NA,1,silence,silence,G_2,1,0,0,1,0
11,stimuli/tones/FlatIEC-27dB.wav,1.25,12,space,2.2361,W_3,stimuli/Baron6dB/070202.wav,stimuli/Tiger/050200.wav,stimuli/Charlie/000102.wav,NA,1,-27dB,Flat,W_3,1,1,0,0,0
11,stimuli/tones/silence.wav,0.75,13,noResp,NA,W_4,stimuli/Baron6dB/070302.wav,stimuli/Eagle/060300.wav,stimuli/Charlie/000303.wav,NA,1,silence,silence,G_3,0,0,0,1,0
11,stimuli/tones/PercTri-18dB.wav,0.75,14,space,1.1523,B_4,stimuli/Baron6dB/070003.wav,stimuli/Tiger/050101.wav,stimuli/Eagle/060201.wav,NA,1,-18dB,PercTri,B_4,1,1,0,0,0
11,stimuli/tones/silence.wav,1.25,15,noResp,NA,B_2,stimuli/Baron6dB/070200.wav,stimuli/Ringo/010101.wav,stimuli/Eagle/060001.wav,NA,1,silence,silence,W_1,0,0,0,1,0
11,stimuli/tones/silence.wav,0.75,16,noResp,NA,G_2,stimuli/Baron6dB/070301.wav,stimuli/Laker/020300.wav,stimuli/Arrow/040202.wav,NA,1,silence,silence,G_2,1,0,0,1,0
11,stimuli/tones/PercTri-24dB.wav,0.75,17,space,1.1784,B_3,stimuli/Baron6dB/070002.wav,stimuli/Hopper/030200.wav,stimuli/Hopper/030203.wav,NA,1,-24dB,PercTri,B_3,1,1,0,0,0
11,stimuli/tones/silence.wav,2,18,noResp,NA,G_1,stimuli/Baron6dB/070100.wav,stimuli/Tiger/050300.wav,stimuli/Hopper/030300.wav,NA,1,silence,silence,R_1,0,0,0,1,0
11,stimuli/tones/FlatIEC-27dB.wav,1.25,19,space,2.4042,W_4,stimuli/Baron6dB/070203.wav,stimuli/Eagle/060301.wav,stimuli/Ringo/010002.wav,NA,1,-27dB,Flat,W_4,1,1,0,0,0
11,stimuli/tones/PercTri-24dB.wav,2,20,space,2.4716,W_1,stimuli/Baron6dB/070200.wav,stimuli/Eagle/060001.wav,stimuli/Hopper/030003.wav,NA,1,-24dB,PercTri,W_1,1,1,0,0,0
11,stimuli/tones/FlatIEC-30dB.wav,2,21,noResp,NA,R_4,stimuli/Baron6dB/070103.wav,stimuli/Charlie/000202.wav,stimuli/Charlie/000000.wav,NA,0,-30dB,Flat,R_4,1,0,1,0,0
11,stimuli/tones/silence.wav,1.25,22,space,0.3862,W_3,stimuli/Baron6dB/070202.wav,stimuli/Ringo/010301.wav,stimuli/Ringo/010203.wav,NA,0,silence,silence,W_3,1,0,0,0,1
11,stimuli/tones/silence.wav,1.25,23,noResp,NA,R_3,stimuli/Baron6dB/070102.wav,stimuli/Hopper/030002.wav,stimuli/Laker/020100.wav,NA,1,silence,silence,R_3,1,0,0,1,0
11,stimuli/tones/silence.wav,1.25,24,noResp,NA,G_1,stimuli/Baron6dB/070300.wav,stimuli/Tiger/050301.wav,stimuli/Laker/020102.wav,NA,1,silence,silence,G_1,1,0,0,1,0
11,stimuli/tones/PercTri-27dB.wav,0.75,25,space,1.2286,B_2,stimuli/Baron6dB/070001.wav,stimuli/Eagle/060103.wav,stimuli/Charlie/000003.wav,NA,1,-27dB,PercTri,B_2,1,1,0,0,0
11,stimuli/tones/silence.wav,1.25,26,noResp,NA,G_4,stimuli/Baron6dB/070003.wav,stimuli/Arrow/040202.wav,stimuli/Charlie/000100.wav,NA,1,silence,silence,B_4,0,0,0,1,0
11,stimuli/tones/FlatIEC-33dB.wav,0.75,27,noResp,NA,B_2,stimuli/Baron6dB/070101.wav,stimuli/Tiger/050203.wav,stimuli/Eagle/060102.wav,NA,0,-33dB,Flat,R_2,0,0,1,0,0
11,stimuli/tones/silence.wav,1.25,28,noResp,NA,G_3,stimuli/Baron6dB/070302.wav,stimuli/Eagle/060203.wav,stimuli/Arrow/040303.wav,NA,1,silence,silence,G_3,1,0,0,1,0
11,stimuli/tones/silence.wav,0.75,29,noResp,NA,W_1,stimuli/Baron6dB/070000.wav,stimuli/Ringo/010201.wav,stimuli/Arrow/040100.wav,NA,1,silence,silence,B_1,0,0,0,1,0
11,stimuli/tones/silence.wav,0.75,30,space,1.5637,W_2,stimuli/Baron6dB/070201.wav,stimuli/Tiger/050000.wav,stimuli/Eagle/060203.wav,NA,0,silence,silence,W_2,1,0,0,0,1
11,stimuli/tones/PercTri-21dB.wav,1.25,31,space,1.6843,W_2,stimuli/Baron6dB/070303.wav,stimuli/Charlie/000100.wav,stimuli/Ringo/010201.wav,NA,1,-21dB,PercTri,G_4,0,1,0,0,0
11,stimuli/tones/silence.wav,2,32,noResp,NA,W_4,stimuli/Baron6dB/070203.wav,stimuli/Eagle/060200.wav,stimuli/Arrow/040301.wav,NA,1,silence,silence,W_4,1,0,0,1,0
11,stimuli/tones/silence.wav,1.25,33,noResp,NA,B_2,stimuli/Baron6dB/070001.wav,stimuli/Laker/020203.wav,stimuli/Charlie/000301.wav,NA,1,silence,silence,B_2,1,0,0,1,0
11,stimuli/tones/silence.wav,0.75,34,noResp,NA,G_1,stimuli/Baron6dB/070102.wav,stimuli/Arrow/040003.wav,stimuli/Eagle/060300.wav,NA,1,silence,silence,R_3,0,0,0,1,0
11,stimuli/tones/FlatIEC-21dB.wav,0.75,35,space,1.8638,R_4,stimuli/Baron6dB/070103.wav,stimuli/Tiger/050100.wav,stimuli/Tiger/050300.wav,NA,1,-21dB,Flat,R_4,1,1,0,0,0
11,stimuli/tones/PercTri-27dB.wav,2,36,space,2.6479,W_1,stimuli/Baron6dB/070200.wav,stimuli/Arrow/040103.wav,stimuli/Laker/020300.wav,NA,1,-27dB,PercTri,W_1,1,1,0,0,0
11,stimuli/tones/PercTri-24dB.wav,1.25,37,space,1.9176,G_3,stimuli/Baron6dB/070302.wav,stimuli/Ringo/010303.wav,stimuli/Ringo/010301.wav,NA,1,-24dB,PercTri,G_3,1,1,0,0,0
11,stimuli/tones/silence.wav,1.25,38,noResp,NA,G_2,stimuli/Baron6dB/070301.wav,stimuli/Ringo/010102.wav,stimuli/Hopper/030103.wav,NA,1,silence,silence,G_2,1,0,0,1,0
11,stimuli/tones/silence.wav,2,39,noResp,NA,B_3,stimuli/Baron6dB/070002.wav,stimuli/Arrow/040300.wav,stimuli/Ringo/010202.wav,NA,1,silence,silence,B_3,1,0,0,1,0
11,stimuli/tones/PercTri-21dB.wav,0.75,40,space,1.2859,B_4,stimuli/Baron6dB/070003.wav,stimuli/Laker/020102.wav,stimuli/Charlie/000001.wav,NA,1,-21dB,PercTri,B_4,1,1,0,0,0
11,stimuli/tones/PercTri-27dB.wav,2,41,noResp,NA,W_2,stimuli/Baron6dB/070201.wav,stimuli/Charlie/000103.wav,stimuli/Ringo/010100.wav,NA,0,-27dB,PercTri,W_2,1,0,1,0,0
11,stimuli/tones/silence.wav,0.75,42,noResp,NA,G_3,stimuli/Baron6dB/070303.wav,stimuli/Laker/020301.wav,stimuli/Tiger/050101.wav,NA,1,silence,silence,G_4,0,0,0,1,0
11,stimuli/tones/FlatIEC-24dB.wav,1.25,43,space,2.0347,R_2,stimuli/Baron6dB/070101.wav,stimuli/Tiger/050302.wav,stimuli/Charlie/000002.wav,NA,1,-24dB,Flat,R_2,1,1,0,0,0
11,stimuli/tones/silence.wav,2,44,noResp,NA,B_1,stimuli/Baron6dB/070000.wav,stimuli/Tiger/050002.wav,stimuli/Hopper/030000.wav,NA,1,silence,silence,B_1,1,0,0,1,0
11,stimuli/tones/FlatIEC-18dB.wav,2,45,space,2.8987,W_3,stimuli/Baron6dB/070202.wav,stimuli/Tiger/050003.wav,stimuli/Ringo/010200.wav,NA,1,-18dB,Flat,W_3,1,1,0,0,0
11,stimuli/tones/silence.wav,2,46,noResp,NA,G_1,stimuli/Baron6dB/070300.wav,stimuli/Eagle/060302.wav,stimuli/Tiger/050100.wav,NA,1,silence,silence,G_1,1,0,0,1,0
11,stimuli/tones/PercTri-18dB.wav,1.25,47,space,1.7501,W_1,stimuli/Baron6dB/070100.wav,stimuli/Tiger/050303.wav,stimuli/Laker/020203.wav,NA,1,-18dB,PercTri,R_1,0,1,0,0,0
11,stimuli/tones/silence.wav,1.25,48,noResp,NA,W_4,stimuli/Baron6dB/070203.wav,stimuli/Charlie/000301.wav,stimuli/Laker/020001.wav,NA,1,silence,silence,W_4,1,0,0,1,0
11,stimuli/tones/silence.wav,0.75,49,noResp,NA,B_2,stimuli/Baron6dB/070001.wav,stimuli/Hopper/030001.wav,stimuli/Laker/020003.wav,NA,1,silence,silence,B_2,1,0,0,1,0
11,stimuli/tones/PercTri-33dB.wav,1.25,50,space,1.8488,R_3,stimuli/Baron6dB/070102.wav,stimuli/Hopper/030000.wav,stimuli/Arrow/040300.wav,NA,1,-33dB,PercTri,R_3,1,1,0,0,0
11,stimuli/tones/FlatIEC-24dB.wav,2,51,space,3.9893,G_1,stimuli/Baron6dB/070300.wav,stimuli/Charlie/000003.wav,stimuli/Ringo/010103.wav,NA,1,-24dB,Flat,G_1,1,1,0,0,0
11,stimuli/tones/PercTri-27dB.wav,0.75,52,space,1.4004,W_1,stimuli/Baron6dB/070200.wav,stimuli/Eagle/060102.wav,stimuli/Tiger/050203.wav,NA,1,-27dB,PercTri,W_1,1,1,0,0,0
11,stimuli/tones/FlatIEC-24dB.wav,0.75,53,space,1.383,B_4,stimuli/Baron6dB/070303.wav,stimuli/Laker/020302.wav,stimuli/Tiger/050003.wav,NA,1,-24dB,Flat,G_4,0,1,0,0,0
11,stimuli/tones/PercTri-18dB.wav,0.75,54,noResp,NA,B_1,stimuli/Baron6dB/070000.wav,stimuli/Charlie/000101.wav,stimuli/Laker/020000.wav,NA,0,-18dB,PercTri,B_1,1,0,1,0,0
11,stimuli/tones/silence.wav,1.25,55,space,0.1164,R_1,stimuli/Baron6dB/070100.wav,stimuli/Tiger/050001.wav,stimuli/Ringo/010300.wav,NA,0,silence,silence,R_1,1,0,0,0,1
11,stimuli/tones/silence.wav,2,56,noResp,NA,B_3,stimuli/Baron6dB/070002.wav,stimuli/Arrow/040102.wav,stimuli/Charlie/000103.wav,NA,1,silence,silence,B_3,1,0,0,1,0
11,stimuli/tones/silence.wav,1.25,57,noResp,NA,G_3,stimuli/Baron6dB/070302.wav,stimuli/Hopper/030203.wav,stimuli/Arrow/040002.wav,NA,1,silence,silence,G_3,1,0,0,1,0
11,stimuli/tones/FlatIEC-24dB.wav,0.75,58,space,1.8843,W_2,stimuli/Baron6dB/070201.wav,stimuli/Ringo/010200.wav,stimuli/Charlie/000300.wav,NA,1,-24dB,Flat,W_2,1,1,0,0,0
11,stimuli/tones/FlatIEC-18dB.wav,0.75,59,space,1.6645,G_2,stimuli/Baron6dB/070301.wav,stimuli/Laker/020201.wav,stimuli/Arrow/040203.wav,NA,1,-18dB,Flat,G_2,1,1,0,0,0
11,stimuli/tones/silence.wav,1.25,60,noResp,NA,B_4,stimuli/Baron6dB/070003.wav,stimuli/Laker/020200.wav,stimuli/Hopper/030002.wav,NA,1,silence,silence,B_4,1,0,0,1,0
11,stimuli/tones/FlatIEC-18dB.wav,1.25,61,space,2.5063,R_2,stimuli/Baron6dB/070101.wav,stimuli/Ringo/010202.wav,stimuli/Hopper/030100.wav,NA,1,-18dB,Flat,R_2,1,1,0,0,0
11,stimuli/tones/FlatIEC-21dB.wav,1.25,62,noResp,NA,R_4,stimuli/Baron6dB/070103.wav,stimuli/Hopper/030201.wav,stimuli/Tiger/050002.wav,NA,0,-21dB,Flat,R_4,1,0,1,0,0
11,stimuli/tones/silence.wav,1.25,63,noResp,NA,W_3,stimuli/Baron6dB/070202.wav,stimuli/Arrow/040201.wav,stimuli/Charlie/000201.wav,NA,1,silence,silence,W_3,1,0,0,1,0
11,stimuli/tones/PercTri-18dB.wav,1.25,64,space,1.8056,W_3,stimuli/Baron6dB/070201.wav,stimuli/Arrow/040301.wav,stimuli/Laker/020302.wav,NA,1,-18dB,PercTri,W_2,0,1,0,0,0
11,stimuli/tones/silence.wav,2,65,noResp,NA,G_3,stimuli/Baron6dB/070302.wav,stimuli/Hopper/030301.wav,stimuli/Laker/020103.wav,NA,1,silence,silence,G_3,1,0,0,1,0
11,stimuli/tones/FlatIEC-24dB.wav,0.75,66,space,2.9036,W_3,stimuli/Baron6dB/070202.wav,stimuli/Hopper/030101.wav,stimuli/Ringo/010003.wav,NA,1,-24dB,Flat,W_3,1,1,0,0,0
11,stimuli/tones/FlatIEC-21dB.wav,1.25,67,space,1.8467,W_1,stimuli/Baron6dB/070203.wav,stimuli/Laker/020101.wav,stimuli/Eagle/060200.wav,NA,1,-21dB,Flat,W_4,0,1,0,0,0
11,stimuli/tones/FlatIEC-33dB.wav,0.75,68,noResp,NA,G_4,stimuli/Baron6dB/070303.wav,stimuli/Eagle/060303.wav,stimuli/Eagle/060002.wav,NA,0,-33dB,Flat,G_4,1,0,1,0,0
11,stimuli/tones/FlatIEC-21dB.wav,0.75,69,space,1.622,G_1,stimuli/Baron6dB/070300.wav,stimuli/Charlie/000300.wav,stimuli/Charlie/000202.wav,NA,1,-21dB,Flat,G_1,1,1,0,0,0
11,stimuli/tones/PercTri-18dB.wav,1.25,70,space,1.7482,R_3,stimuli/Baron6dB/070102.wav,stimuli/Hopper/030100.wav,stimuli/Hopper/030101.wav,NA,1,-18dB,PercTri,R_3,1,1,0,0,0
11,stimuli/tones/PercTri-24dB.wav,0.75,71,noResp,NA,W_3,stimuli/Baron6dB/070100.wav,stimuli/Ringo/010100.wav,stimuli/Hopper/030202.wav,NA,0,-24dB,PercTri,R_1,0,0,1,0,0
11,stimuli/tones/silence.wav,2,72,space,0.2833,G_4,stimuli/Baron6dB/070000.wav,stimuli/Charlie/000000.wav,stimuli/Hopper/030303.wav,NA,0,silence,silence,B_1,0,0,0,0,1
11,stimuli/tones/PercTri-21dB.wav,2,73,space,3.7165,B_1,stimuli/Baron6dB/070002.wav,stimuli/Hopper/030003.wav,stimuli/Tiger/050000.wav,NA,1,-21dB,PercTri,B_3,0,1,0,0,0
11,stimuli/tones/PercTri-24dB.wav,1.25,74,space,1.669,B_2,stimuli/Baron6dB/070101.wav,stimuli/Arrow/040302.wav,stimuli/Eagle/060301.wav,NA,1,-24dB,PercTri,R_2,0,1,0,0,0
11,stimuli/tones/silence.wav,2,75,noResp,NA,B_1,stimuli/Baron6dB/070301.wav,stimuli/Eagle/060000.wav,stimuli/Ringo/010000.wav,NA,1,silence,silence,G_2,0,0,0,1,0
11,stimuli/tones/silence.wav,2,76,space,1.7324,B_4,stimuli/Baron6dB/070200.wav,stimuli/Hopper/030300.wav,stimuli/Eagle/060003.wav,NA,0,silence,silence,W_1,0,0,0,0,1
11,stimuli/tones/silence.wav,1.25,77,noResp,NA,G_4,stimuli/Baron6dB/070001.wav,stimuli/Arrow/040100.wav,stimuli/Ringo/010303.wav,NA,1,silence,silence,B_2,0,0,0,1,0
11,stimuli/tones/silence.wav,0.75,78,noResp,NA,G_4,stimuli/Baron6dB/070103.wav,stimuli/Ringo/010003.wav,stimuli/Tiger/050303.wav,NA,1,silence,silence,R_4,0,0,0,1,0
11,stimuli/tones/silence.wav,2,79,noResp,NA,W_1,stimuli/Baron6dB/070003.wav,stimuli/Laker/020100.wav,stimuli/Hopper/030200.wav,NA,1,silence,silence,B_4,0,0,0,1,0
11,stimuli/tones/silence.wav,2,80,space,2.1669,W_4,stimuli/Baron6dB/070203.wav,stimuli/Tiger/050202.wav,stimuli/Tiger/050103.wav,NA,0,silence,silence,W_4,1,0,0,0,1
11,stimuli/tones/silence.wav,2,81,noResp,NA,W_3,stimuli/Baron6dB/070200.wav,stimuli/Ringo/010203.wav,stimuli/Tiger/050102.wav,NA,1,silence,silence,W_1,0,0,0,1,0
11,stimuli/tones/silence.wav,0.75,82,noResp,NA,W_3,stimuli/Baron6dB/070300.wav,stimuli/Arrow/040101.wav,stimuli/Ringo/010102.wav,NA,1,silence,silence,G_1,0,0,0,1,0
11,stimuli/tones/FlatIEC-33dB.wav,2,83,space,3.2688,W_1,stimuli/Baron6dB/070101.wav,stimuli/Charlie/000303.wav,stimuli/Tiger/050200.wav,NA,1,-33dB,Flat,R_2,0,1,0,0,0
11,stimuli/tones/FlatIEC-33dB.wav,1.25,84,noResp,NA,W_4,stimuli/Baron6dB/070102.wav,stimuli/Eagle/060202.wav,stimuli/Charlie/000203.wav,NA,0,-33dB,Flat,R_3,0,0,1,0,0
11,stimuli/tones/silence.wav,1.25,85,noResp,NA,B_2,stimuli/Baron6dB/070001.wav,stimuli/Eagle/060201.wav,stimuli/Eagle/060101.wav,NA,1,silence,silence,B_2,1,0,0,1,0
11,stimuli/tones/PercTri-21dB.wav,1.25,86,space,1.8188,B_2,stimuli/Baron6dB/070100.wav,stimuli/Ringo/010002.wav,stimuli/Hopper/030001.wav,NA,1,-21dB,PercTri,R_1,0,1,0,0,0
11,stimuli/tones/FlatIEC-30dB.wav,1.25,87,noResp,NA,W_2,stimuli/Baron6dB/070201.wav,stimuli/Tiger/050102.wav,stimuli/Ringo/010101.wav,NA,0,-30dB,Flat,W_2,1,0,1,0,0
11,stimuli/tones/FlatIEC-27dB.wav,0.75,88,noResp,NA,B_1,stimuli/Baron6dB/070000.wav,stimuli/Eagle/060101.wav,stimuli/Hopper/030301.wav,NA,0,-27dB,Flat,B_1,1,0,1,0,0
11,stimuli/tones/FlatIEC-27dB.wav,1.25,89,space,2.9494,R_4,stimuli/Baron6dB/070103.wav,stimuli/Laker/020002.wav,stimuli/Arrow/040003.wav,NA,1,-27dB,Flat,R_4,1,1,0,0,0
11,stimuli/tones/silence.wav,1.25,90,noResp,NA,W_1,stimuli/Baron6dB/070303.wav,stimuli/Charlie/000102.wav,stimuli/Charlie/000200.wav,NA,1,silence,silence,G_4,0,0,0,1,0
11,stimuli/tones/silence.wav,1.25,91,noResp,NA,B_3,stimuli/Baron6dB/070002.wav,stimuli/Laker/020000.wav,stimuli/Ringo/010302.wav,NA,1,silence,silence,B_3,1,0,0,1,0
11,stimuli/tones/FlatIEC-30dB.wav,2,92,space,6.2309,B_4,stimuli/Baron6dB/070003.wav,stimuli/Laker/020303.wav,stimuli/Arrow/040103.wav,NA,1,-30dB,Flat,B_4,1,1,0,0,0
11,stimuli/tones/FlatIEC-33dB.wav,2,93,noResp,NA,G_2,stimuli/Baron6dB/070301.wav,stimuli/Charlie/000002.wav,stimuli/Arrow/040102.wav,NA,0,-33dB,Flat,G_2,1,0,1,0,0
11,stimuli/tones/silence.wav,2,94,space,0.2897,B_1,stimuli/Baron6dB/070302.wav,stimuli/Arrow/040001.wav,stimuli/Eagle/060000.wav,NA,0,silence,silence,G_3,0,0,0,0,1
11,stimuli/tones/silence.wav,1.25,95,noResp,NA,W_3,stimuli/Baron6dB/070202.wav,stimuli/Ringo/010302.wav,stimuli/Laker/020301.wav,NA,1,silence,silence,W_3,1,0,0,1,0
11,stimuli/tones/FlatIEC-30dB.wav,2,96,noResp,NA,W_2,stimuli/Baron6dB/070000.wav,stimuli/Hopper/030102.wav,stimuli/Charlie/000101.wav,NA,0,-30dB,Flat,B_1,0,0,1,0,0
11,stimuli/tones/silence.wav,0.75,97,noResp,NA,W_1,stimuli/Baron6dB/070200.wav,stimuli/Eagle/060100.wav,stimuli/Tiger/050301.wav,NA,1,silence,silence,W_1,1,0,0,1,0
11,stimuli/tones/FlatIEC-21dB.wav,2,98,space,2.519,G_3,stimuli/Baron6dB/070101.wav,stimuli/Laker/020103.wav,stimuli/Arrow/040302.wav,NA,1,-21dB,Flat,R_2,0,1,0,0,0
11,stimuli/tones/silence.wav,2,99,noResp,NA,B_3,stimuli/Baron6dB/070002.wav,stimuli/Hopper/030202.wav,stimuli/Charlie/000302.wav,NA,1,silence,silence,B_3,1,0,0,1,0
11,stimuli/tones/FlatIEC-18dB.wav,2,100,space,2.734,R_4,stimuli/Baron6dB/070103.wav,stimuli/Ringo/010300.wav,stimuli/Laker/020101.wav,NA,1,-18dB,Flat,R_4,1,1,0,0,0
11,stimuli/tones/FlatIEC-27dB.wav,2,101,noResp,NA,R_3,stimuli/Baron6dB/070102.wav,stimuli/Eagle/060002.wav,stimuli/Hopper/030102.wav,NA,0,-27dB,Flat,R_3,1,0,1,0,0
11,stimuli/tones/PercTri-30dB.wav,1.25,102,space,1.7813,W_3,stimuli/Baron6dB/070202.wav,stimuli/Charlie/000203.wav,stimuli/Eagle/060303.wav,NA,1,-30dB,PercTri,W_3,1,1,0,0,0
11,stimuli/tones/PercTri-30dB.wav,0.75,103,noResp,NA,G_1,stimuli/Baron6dB/070300.wav,stimuli/Charlie/000302.wav,stimuli/Arrow/040201.wav,NA,0,-30dB,PercTri,G_1,1,0,1,0,0
11,stimuli/tones/PercTri-27dB.wav,0.75,104,space,0.0833,B_2,stimuli/Baron6dB/070303.wav,stimuli/Laker/020001.wav,stimuli/Tiger/050001.wav,NA,1,-27dB,PercTri,G_4,0,1,0,0,0
11,stimuli/tones/silence.wav,2,105,noResp,NA,B_2,stimuli/Baron6dB/070001.wav,stimuli/Charlie/000001.wav,stimuli/Hopper/030302.wav,NA,1,silence,silence,B_2,1,0,0,1,0
11,stimuli/tones/silence.wav,0.75,106,noResp,NA,B_4,stimuli/Baron6dB/070003.wav,stimuli/Charlie/000201.wav,stimuli/Laker/020202.wav,NA,1,silence,silence,B_4,1,0,0,1,0
11,stimuli/tones/silence.wav,2,107,noResp,NA,W_4,stimuli/Baron6dB/070203.wav,stimuli/Charlie/000200.wav,stimuli/Laker/020201.wav,NA,1,silence,silence,W_4,1,0,0,1,0
11,stimuli/tones/silence.wav,1.25,108,noResp,NA,G_3,stimuli/Baron6dB/070302.wav,stimuli/Ringo/010000.wav,stimuli/Arrow/040001.wav,NA,1,silence,silence,G_3,1,0,0,1,0
11,stimuli/tones/silence.wav,1.25,109,noResp,NA,R_1,stimuli/Baron6dB/070100.wav,stimuli/Hopper/030103.wav,stimuli/Laker/020002.wav,NA,1,silence,silence,R_1,1,0,0,1,0
11,stimuli/tones/silence.wav,2,110,noResp,NA,G_2,stimuli/Baron6dB/070301.wav,stimuli/Hopper/030303.wav,stimuli/Arrow/040000.wav,NA,1,silence,silence,G_2,1,0,0,1,0
11,stimuli/tones/silence.wav,2,111,noResp,NA,W_2,stimuli/Baron6dB/070201.wav,stimuli/Hopper/030302.wav,stimuli/Laker/020303.wav,NA,1,silence,silence,W_2,1,0,0,1,0
11,stimuli/tones/silence.wav,0.75,112,noResp,NA,W_2,stimuli/Baron6dB/070201.wav,stimuli/Laker/020201.wav,stimuli/Ringo/010302.wav,NA,1,silence,silence,W_2,1,0,0,1,0
11,stimuli/tones/silence.wav,1.25,113,noResp,NA,B_3,stimuli/Baron6dB/070002.wav,stimuli/Charlie/000200.wav,stimuli/Tiger/050000.wav,NA,1,silence,silence,B_3,1,0,0,1,0
11,stimuli/tones/PercTri-33dB.wav,2,114,noResp,NA,G_4,stimuli/Baron6dB/070303.wav,stimuli/Charlie/000100.wav,stimuli/Tiger/050103.wav,NA,0,-33dB,PercTri,G_4,1,0,1,0,0
11,stimuli/tones/silence.wav,2,115,space,0.2823,W_3,stimuli/Baron6dB/070100.wav,stimuli/Hopper/030203.wav,stimuli/Charlie/000202.wav,NA,0,silence,silence,R_1,0,0,0,0,1
11,stimuli/tones/silence.wav,2,116,noResp,NA,G_4,stimuli/Baron6dB/070302.wav,stimuli/Laker/020301.wav,stimuli/Tiger/050303.wav,NA,1,silence,silence,G_3,0,0,0,1,0
11,stimuli/tones/PercTri-30dB.wav,2,117,space,2.7963,W_4,stimuli/Baron6dB/070103.wav,stimuli/Charlie/000301.wav,stimuli/Laker/020000.wav,NA,1,-30dB,PercTri,R_4,0,1,0,0,0
11,stimuli/tones/PercTri-27dB.wav,1.25,118,noResp,NA,W_1,stimuli/Baron6dB/070200.wav,stimuli/Tiger/050300.wav,stimuli/Hopper/030201.wav,NA,0,-27dB,PercTri,W_1,1,0,1,0,0
11,stimuli/tones/PercTri-27dB.wav,2,119,space,2.5136,B_4,stimuli/Baron6dB/070003.wav,stimuli/Laker/020102.wav,stimuli/Charlie/000002.wav,NA,1,-27dB,PercTri,B_4,1,1,0,0,0
11,stimuli/tones/PercTri-33dB.wav,1.25,120,space,1.6072,B_2,stimuli/Baron6dB/070001.wav,stimuli/Tiger/050001.wav,stimuli/Arrow/040101.wav,NA,1,-33dB,PercTri,B_2,1,1,0,0,0
11,stimuli/tones/PercTri-18dB.wav,2,121,space,2.4272,B_3,stimuli/Baron6dB/070202.wav,stimuli/Laker/020200.wav,stimuli/Eagle/060300.wav,NA,1,-18dB,PercTri,W_3,0,1,0,0,0
11,stimuli/tones/FlatIEC-18dB.wav,1.25,122,space,2.0869,G_2,stimuli/Baron6dB/070301.wav,stimuli/Tiger/050102.wav,stimuli/Hopper/030303.wav,NA,1,-18dB,Flat,G_2,1,1,0,0,0
11,stimuli/tones/silence.wav,2,123,noResp,NA,W_4,stimuli/Baron6dB/070203.wav,stimuli/Tiger/050203.wav,stimuli/Charlie/000203.wav,NA,1,silence,silence,W_4,1,0,0,1,0
11,stimuli/tones/PercTri-30dB.wav,1.25,124,space,1.7058,W_4,stimuli/Baron6dB/070101.wav,stimuli/Laker/020100.wav,stimuli/Charlie/000003.wav,NA,1,-30dB,PercTri,R_2,0,1,0,0,0
11,stimuli/tones/PercTri-24dB.wav,2,125,noResp,NA,G_1,stimuli/Baron6dB/070300.wav,stimuli/Arrow/040200.wav,stimuli/Arrow/040103.wav,NA,0,-24dB,PercTri,G_1,1,0,1,0,0
11,stimuli/tones/silence.wav,2,126,space,0.1616,B_1,stimuli/Baron6dB/070000.wav,stimuli/Laker/020300.wav,stimuli/Arrow/040300.wav,NA,0,silence,silence,B_1,1,0,0,0,1
11,stimuli/tones/silence.wav,1.25,127,noResp,NA,R_3,stimuli/Baron6dB/070102.wav,stimuli/Charlie/000302.wav,stimuli/Hopper/030203.wav,NA,1,silence,silence,R_3,1,0,0,1,0
11,stimuli/tones/PercTri-27dB.wav,1.25,128,noResp,NA,B_4,stimuli/Baron6dB/070003.wav,stimuli/Laker/020001.wav,stimuli/Tiger/050001.wav,NA,0,-27dB,PercTri,B_4,1,0,1,0,0
11,stimuli/tones/FlatIEC-18dB.wav,1.25,129,space,2.2176,R_3,stimuli/Baron6dB/070102.wav,stimuli/Eagle/060303.wav,stimuli/Ringo/010003.wav,NA,1,-18dB,Flat,R_3,1,1,0,0,0
11,stimuli/tones/PercTri-24dB.wav,2,130,space,4.0179,B_2,stimuli/Baron6dB/070001.wav,stimuli/Hopper/030003.wav,stimuli/Eagle/060202.wav,NA,1,-24dB,PercTri,B_2,1,1,0,0,0
11,stimuli/tones/silence.wav,1.25,131,noResp,NA,B_3,stimuli/Baron6dB/070002.wav,stimuli/Hopper/030000.wav,stimuli/Laker/020002.wav,NA,1,silence,silence,B_3,1,0,0,1,0
11,stimuli/tones/silence.wav,0.75,132,noResp,NA,B_1,stimuli/Baron6dB/070000.wav,stimuli/Tiger/050302.wav,stimuli/Tiger/050201.wav,NA,1,silence,silence,B_1,1,0,0,1,0
11,stimuli/tones/PercTri-21dB.wav,0.75,133,space,1.4548,W_3,stimuli/Baron6dB/070201.wav,stimuli/Laker/020002.wav,stimuli/Tiger/050202.wav,NA,1,-21dB,PercTri,W_2,0,1,0,0,0
11,stimuli/tones/silence.wav,2,134,noResp,NA,G_4,stimuli/Baron6dB/070303.wav,stimuli/Ringo/010200.wav,stimuli/Eagle/060002.wav,NA,1,silence,silence,G_4,1,0,0,1,0
11,stimuli/tones/FlatIEC-18dB.wav,0.75,135,noResp,NA,W_4,stimuli/Baron6dB/070203.wav,stimuli/Ringo/010202.wav,stimuli/Charlie/000101.wav,NA,0,-18dB,Flat,W_4,1,0,1,0,0
11,stimuli/tones/silence.wav,0.75,136,noResp,NA,W_1,stimuli/Baron6dB/070200.wav,stimuli/Laker/020303.wav,stimuli/Tiger/050101.wav,NA,1,silence,silence,W_1,1,0,0,1,0
11,stimuli/tones/FlatIEC-21dB.wav,2,137,space,3.4303,W_2,stimuli/Baron6dB/070300.wav,stimuli/Hopper/030200.wav,stimuli/Eagle/060201.wav,NA,1,-21dB,Flat,G_1,0,1,0,0,0
11,stimuli/tones/PercTri-33dB.wav,2,138,space,2.359,W_2,stimuli/Baron6dB/070100.wav,stimuli/Tiger/050100.wav,stimuli/Laker/020302.wav,NA,1,-33dB,PercTri,R_1,0,1,0,0,0
11,stimuli/tones/silence.wav,1.25,139,noResp,NA,G_2,stimuli/Baron6dB/070301.wav,stimuli/Eagle/060300.wav,stimuli/Hopper/030302.wav,NA,1,silence,silence,G_2,1,0,0,1,0
11,stimuli/tones/silence.wav,1.25,140,noResp,NA,G_4,stimuli/Baron6dB/070302.wav,stimuli/Laker/020302.wav,stimuli/Tiger/050003.wav,NA,1,silence,silence,G_3,0,0,0,1,0
11,stimuli/tones/PercTri-21dB.wav,2,141,space,3.7493,B_2,stimuli/Baron6dB/070103.wav,stimuli/Hopper/030103.wav,stimuli/Laker/020001.wav,NA,1,-21dB,PercTri,R_4,0,1,0,0,0
11,stimuli/tones/silence.wav,0.75,142,noResp,NA,W_2,stimuli/Baron6dB/070202.wav,stimuli/Arrow/040100.wav,stimuli/Ringo/010201.wav,NA,1,silence,silence,W_3,0,0,0,1,0
11,stimuli/tones/FlatIEC-24dB.wav,1.25,143,space,3.2377,B_2,stimuli/Baron6dB/070101.wav,stimuli/Ringo/010001.wav,stimuli/Hopper/030001.wav,NA,1,-24dB,Flat,R_2,0,1,0,0,0
11,stimuli/tones/silence.wav,0.75,144,noResp,NA,B_4,stimuli/Baron6dB/070003.wav,stimuli/Charlie/000202.wav,stimuli/Hopper/030101.wav,NA,1,silence,silence,B_4,1,0,0,1,0
11,stimuli/tones/silence.wav,0.75,145,space,0.9526,W_2,stimuli/Baron6dB/070201.wav,stimuli/Eagle/060101.wav,stimuli/Laker/020300.wav,NA,0,silence,silence,W_2,1,0,0,0,1
11,stimuli/tones/FlatIEC-18dB.wav,2,146,noResp,NA,R_2,stimuli/Baron6dB/070101.wav,stimuli/Charlie/000103.wav,stimuli/Laker/020203.wav,NA,0,-18dB,Flat,R_2,1,0,1,0,0
11,stimuli/tones/FlatIEC-30dB.wav,0.75,147,noResp,NA,B_2,stimuli/Baron6dB/070001.wav,stimuli/Hopper/030303.wav,stimuli/Arrow/040202.wav,NA,0,-30dB,Flat,B_2,1,0,1,0,0
11,stimuli/tones/silence.wav,2,148,noResp,NA,B_3,stimuli/Baron6dB/070002.wav,stimuli/Hopper/030101.wav,stimuli/Arrow/040301.wav,NA,1,silence,silence,B_3,1,0,0,1,0
11,stimuli/tones/PercTri-18dB.wav,2,149,space,2.7659,W_3,stimuli/Baron6dB/070202.wav,stimuli/Ringo/010000.wav,stimuli/Hopper/030003.wav,NA,1,-18dB,PercTri,W_3,1,1,0,0,0
11,stimuli/tones/PercTri-21dB.wav,0.75,150,space,1.2887,G_1,stimuli/Baron6dB/070300.wav,stimuli/Ringo/010201.wav,stimuli/Ringo/010303.wav,NA,1,-21dB,PercTri,G_1,1,1,0,0,0
11,stimuli/tones/silence.wav,0.75,151,space,1.3518,W_1,stimuli/Baron6dB/070200.wav,stimuli/Ringo/010103.wav,stimuli/Charlie/000301.wav,NA,0,silence,silence,W_1,1,0,0,0,1
11,stimuli/tones/PercTri-30dB.wav,0.75,152,space,6.7694,B_2,stimuli/Baron6dB/070302.wav,stimuli/Hopper/030302.wav,stimuli/Ringo/010001.wav,NA,1,-30dB,PercTri,G_3,0,1,0,0,0
11,stimuli/tones/silence.wav,1.25,153,noResp,NA,G_4,stimuli/Baron6dB/070303.wav,stimuli/Arrow/040102.wav,stimuli/Arrow/040203.wav,NA,1,silence,silence,G_4,1,0,0,1,0
11,stimuli/tones/silence.wav,0.75,154,noResp,NA,W_4,stimuli/Baron6dB/070203.wav,stimuli/Hopper/030002.wav,stimuli/Tiger/050100.wav,NA,1,silence,silence,W_4,1,0,0,1,0
11,stimuli/tones/FlatIEC-27dB.wav,0.75,155,noResp,NA,B_1,stimuli/Baron6dB/070000.wav,stimuli/Arrow/040000.wav,stimuli/Tiger/050300.wav,NA,0,-27dB,Flat,B_1,1,0,1,0,0
11,stimuli/tones/silence.wav,1.25,156,noResp,NA,G_2,stimuli/Baron6dB/070301.wav,stimuli/Arrow/040202.wav,stimuli/Arrow/040200.wav,NA,1,silence,silence,G_2,1,0,0,1,0
11,stimuli/tones/silence.wav,2,157,noResp,NA,R_4,stimuli/Baron6dB/070103.wav,stimuli/Ringo/010102.wav,stimuli/Charlie/000201.wav,NA,1,silence,silence,R_4,1,0,0,1,0
11,stimuli/tones/FlatIEC-24dB.wav,2,158,noResp,NA,R_3,stimuli/Baron6dB/070102.wav,stimuli/Ringo/010100.wav,stimuli/Hopper/030000.wav,NA,0,-24dB,Flat,R_3,1,0,1,0,0
11,stimuli/tones/silence.wav,1.25,159,space,0.1976,W_4,stimuli/Baron6dB/070100.wav,stimuli/Arrow/040101.wav,stimuli/Eagle/060103.wav,NA,0,silence,silence,R_1,0,0,0,0,1
11,stimuli/tones/silence.wav,1.25,160,noResp,NA,B_4,stimuli/Baron6dB/070003.wav,stimuli/Eagle/060202.wav,stimuli/Laker/020201.wav,NA,1,silence,silence,B_4,1,0,0,1,0
11,stimuli/tones/silence.wav,2,161,noResp,NA,B_3,stimuli/Baron6dB/070002.wav,stimuli/Laker/020203.wav,stimuli/Arrow/040003.wav,NA,1,silence,silence,B_3,1,0,0,1,0
11,stimuli/tones/silence.wav,2,162,noResp,NA,R_2,stimuli/Baron6dB/070101.wav,stimuli/Arrow/040103.wav,stimuli/Arrow/040000.wav,NA,1,silence,silence,R_2,1,0,0,1,0
11,stimuli/tones/silence.wav,0.75,163,space,2.1292,W_1,stimuli/Baron6dB/070200.wav,stimuli/Tiger/050301.wav,stimuli/Ringo/010300.wav,NA,0,silence,silence,W_1,1,0,0,0,1
11,stimuli/tones/silence.wav,1.25,164,noResp,NA,R_4,stimuli/Baron6dB/070103.wav,stimuli/Charlie/000003.wav,stimuli/Hopper/030301.wav,NA,1,silence,silence,R_4,1,0,0,1,0
11,stimuli/tones/PercTri-18dB.wav,2,165,space,2.8668,B_4,stimuli/Baron6dB/070000.wav,stimuli/Arrow/040303.wav,stimuli/Eagle/060003.wav,NA,1,-18dB,PercTri,B_1,0,1,0,0,0
11,stimuli/tones/silence.wav,0.75,166,noResp,NA,B_4,stimuli/Baron6dB/070302.wav,stimuli/Eagle/060102.wav,stimuli/Arrow/040201.wav,NA,1,silence,silence,G_3,0,0,0,1,0
11,stimuli/tones/PercTri-33dB.wav,2,167,noResp,NA,R_3,stimuli/Baron6dB/070102.wav,stimuli/Charlie/000102.wav,stimuli/Tiger/050203.wav,NA,0,-33dB,PercTri,R_3,1,0,1,0,0
11,stimuli/tones/FlatIEC-30dB.wav,0.75,168,noResp,NA,W_2,stimuli/Baron6dB/070201.wav,stimuli/Eagle/060203.wav,stimuli/Eagle/060101.wav,NA,0,-30dB,Flat,W_2,1,0,1,0,0
11,stimuli/tones/PercTri-30dB.wav,0.75,169,space,0.6246,B_3,stimuli/Baron6dB/070300.wav,stimuli/Tiger/050200.wav,stimuli/Ringo/010002.wav,NA,1,-30dB,PercTri,G_1,0,1,0,0,0
11,stimuli/tones/silence.wav,0.75,170,noResp,NA,W_3,stimuli/Baron6dB/070202.wav,stimuli/Arrow/040001.wav,stimuli/Tiger/050301.wav,NA,1,silence,silence,W_3,1,0,0,1,0
