participant,tone,tone_onset,loop.thisN,key_resp_5.keys,key_resp_5.rt,mouseClick_5.clicked_name,thisA,thisB,thisC,typePrompt,cor,snr,env,CRMcorrect,CRMhit,hit,miss,cr,fa
10,stimuli/tones/FlatIEC-18dB.wav,1.25,0,noResp,NA,R_2,stimuli/Baron6dB/070101.wav,stimuli/Laker/020002.wav,stimuli/Tiger/050102.wav,NA,0,-18dB,Flat,R_2,1,0,1,0,0
10,stimuli/tones/silence.wav,1.25,1,noResp,NA,B_2,stimuli/Baron6dB/070201.wav,stimuli/Hopper/030300.wav,stimuli/Charlie/000000.wav,NA,1,silence,silence,W_2,0,0,0,1,0
10,stimuli/tones/silence.wav,1.25,2,noResp,NA,G_1,stimuli/Baron6dB/070300.wav,stimuli/Charlie/000303.wav,stimuli/Hopper/030000.wav,NA,1,silence,silence,G_1,1,0,0,1,0
10,stimuli/tones/silence.wav,2,3,space,0.966,R_4,stimuli/Baron6dB/070103.wav,stimuli/Charlie/000301.wav,stimuli/Hopper/030102.wav,NA,0,silence,silence,R_4,1,0,0,0,1
10,stimuli/tones/silence.wav,0.75,4,noResp,NA,B_2,stimuli/Baron6dB/070001.wav,stimuli/Charlie/000103.wav,stimuli/Hopper/030200.wav,NA,1,silence,silence,B_2,1,0,0,1,0
10,stimuli/tones/silence.wav,1.25,5,noResp,NA,B_3,stimuli/Baron6dB/070002.wav,stimuli/Laker/020000.wav,stimuli/Eagle/060000.wav,NA,1,silence,silence,B_3,1,0,0,1,0
10,stimuli/tones/PercTri-33dB.wav,1.25,6,noResp,NA,R_3,stimuli/Baron6dB/070102.wav,stimuli/Charlie/000000.wav,stimuli/Eagle/060102.wav,NA,0,-33dB,PercTri,R_3,1,0,1,0,0
10,stimuli/tones/PercTri-18dB.wav,1.25,7,noResp,NA,R_1,stimuli/Baron6dB/070100.wav,stimuli/Laker/020302.wav,stimuli/Charlie/000102.wav,NA,0,-18dB,PercTri,R_1,1,0,1,0,0
10,stimuli/tones/PercTri-18dB.wav,2,8,noResp,NA,G_3,stimuli/Baron6dB/070302.wav,stimuli/Laker/020202.wav,stimuli/Hopper/030002.wav,NA,0,-18dB,PercTri,G_3,1,0,1,0,0
10,stimuli/tones/silence.wav,2,9,noResp,NA,G_4,stimuli/Baron6dB/070303.wav,stimuli/Laker/020103.wav,stimuli/Ringo/010100.wav,NA,1,silence,silence,G_4,1,0,0,1,0
10,stimuli/tones/PercTri-33dB.wav,0.75,10,noResp,NA,W_4,stimuli/Baron6dB/070203.wav,stimuli/Charlie/000002.wav,stimuli/Ringo/010202.wav,NA,0,-33dB,PercTri,W_4,1,0,1,0,0
10,stimuli/tones/silence.wav,0.75,11,noResp,NA,B_1,stimuli/Baron6dB/070000.wav,stimuli/Ringo/010300.wav,stimuli/Laker/020101.wav,NA,1,silence,silence,B_1,1,0,0,1,0
10,stimuli/tones/FlatIEC-18dB.wav,1.25,12,space,2.2298,G_2,stimuli/Baron6dB/070301.wav,stimuli/Arrow/040201.wav,stimuli/Arrow/040202.wav,NA,1,-18dB,Flat,G_2,1,1,0,0,0
10,stimuli/tones/FlatIEC-18dB.wav,2,13,space,2.7023,W_3,stimuli/Baron6dB/070202.wav,stimuli/Hopper/030103.wav,stimuli/Hopper/030201.wav,NA,1,-18dB,Flat,W_3,1,1,0,0,0
10,stimuli/tones/silence.wav,2,14,noResp,NA,B_4,stimuli/Baron6dB/070003.wav,stimuli/Arrow/040101.wav,stimuli/Eagle/060201.wav,NA,1,silence,silence,B_4,1,0,0,1,0
10,stimuli/tones/silence.wav,0.75,15,noResp,NA,W_1,stimuli/Baron6dB/070200.wav,stimuli/Tiger/050203.wav,stimuli/Ringo/010001.wav,NA,1,silence,silence,W_1,1,0,0,1,0
10,stimuli/tones/silence.wav,0.75,16,noResp,NA,G_2,stimuli/Baron6dB/070301.wav,stimuli/Eagle/060200.wav,stimuli/Laker/020002.wav,NA,1,silence,silence,G_2,1,0,0,1,0
10,stimuli/tones/silence.wav,1.25,17,noResp,NA,B_4,stimuli/Baron6dB/070003.wav,stimuli/Ringo/010102.wav,stimuli/Charlie/000001.wav,NA,1,silence,silence,B_4,1,0,0,1,0
10,stimuli/tones/PercTri-24dB.wav,2,18,noResp,NA,R_2,stimuli/Baron6dB/070101.wav,stimuli/Hopper/030001.wav,stimuli/Tiger/050302.wav,NA,0,-24dB,PercTri,R_2,1,0,1,0,0
10,stimuli/tones/silence.wav,2,19,noResp,NA,B_1,stimuli/Baron6dB/070000.wav,stimuli/Charlie/000100.wav,stimuli/Ringo/010300.wav,NA,1,silence,silence,B_1,1,0,0,1,0
10,stimuli/tones/FlatIEC-18dB.wav,0.75,20,space,2.2295,W_1,stimuli/Baron6dB/070201.wav,stimuli/Tiger/050001.wav,stimuli/Laker/020300.wav,NA,1,-18dB,Flat,W_2,0,1,0,0,0
10,stimuli/tones/FlatIEC-21dB.wav,1.25,21,noResp,NA,B_2,stimuli/Baron6dB/070001.wav,stimuli/Ringo/010303.wav,stimuli/Charlie/000101.wav,NA,0,-21dB,Flat,B_2,1,0,1,0,0
10,stimuli/tones/silence.wav,0.75,22,noResp,NA,B_3,stimuli/Baron6dB/070002.wav,stimuli/Arrow/040303.wav,stimuli/Eagle/060300.wav,NA,1,silence,silence,B_3,1,0,0,1,0
10,stimuli/tones/silence.wav,0.75,23,noResp,NA,R_1,stimuli/Baron6dB/070100.wav,stimuli/Ringo/010001.wav,stimuli/Arrow/040002.wav,NA,1,silence,silence,R_1,1,0,0,1,0
10,stimuli/tones/PercTri-30dB.wav,2,24,noResp,NA,G_1,stimuli/Baron6dB/070300.wav,stimuli/Ringo/010203.wav,stimuli/Arrow/040301.wav,NA,0,-30dB,PercTri,G_1,1,0,1,0,0
10,stimuli/tones/PercTri-18dB.wav,0.75,25,noResp,NA,R_2,stimuli/Baron6dB/070103.wav,stimuli/Arrow/040203.wav,stimuli/Laker/020100.wav,NA,0,-18dB,PercTri,R_4,0,0,1,0,0
10,stimuli/tones/PercTri-18dB.wav,0.75,26,noResp,NA,W_3,stimuli/Baron6dB/070202.wav,stimuli/Ringo/010103.wav,stimuli/Arrow/040102.wav,NA,0,-18dB,PercTri,W_3,1,0,1,0,0
10,stimuli/tones/silence.wav,2,27,noResp,NA,W_4,stimuli/Baron6dB/070203.wav,stimuli/Eagle/060301.wav,stimuli/Tiger/050203.wav,NA,1,silence,silence,W_4,1,0,0,1,0
10,stimuli/tones/PercTri-21dB.wav,2,28,noResp,NA,W_3,stimuli/Baron6dB/070102.wav,stimuli/Hopper/030003.wav,stimuli/Tiger/050000.wav,NA,0,-21dB,PercTri,R_3,0,0,1,0,0
10,stimuli/tones/FlatIEC-21dB.wav,1.25,29,noResp,NA,G_3,stimuli/Baron6dB/070302.wav,stimuli/Hopper/030202.wav,stimuli/Ringo/010200.wav,NA,0,-21dB,Flat,G_3,1,0,1,0,0
10,stimuli/tones/FlatIEC-33dB.wav,2,30,noResp,NA,G_4,stimuli/Baron6dB/070303.wav,stimuli/Ringo/010100.wav,stimuli/Ringo/010003.wav,NA,0,-33dB,Flat,G_4,1,0,1,0,0
10,stimuli/tones/FlatIEC-27dB.wav,2,31,noResp,NA,W_1,stimuli/Baron6dB/070200.wav,stimuli/Tiger/050102.wav,stimuli/Laker/020203.wav,NA,0,-27dB,Flat,W_1,1,0,1,0,0
10,stimuli/tones/PercTri-18dB.wav,2,32,space,0.4097,G_3,stimuli/Baron6dB/070302.wav,stimuli/Eagle/060202.wav,stimuli/Arrow/040101.wav,NA,1,-18dB,PercTri,G_3,1,1,0,0,0
10,stimuli/tones/PercTri-24dB.wav,0.75,33,noResp,NA,W_4,stimuli/Baron6dB/070203.wav,stimuli/Arrow/040000.wav,stimuli/Eagle/060001.wav,NA,0,-24dB,PercTri,W_4,1,0,1,0,0
10,stimuli/tones/FlatIEC-33dB.wav,1.25,34,noResp,NA,B_2,stimuli/Baron6dB/070001.wav,stimuli/Arrow/040202.wav,stimuli/Eagle/060101.wav,NA,0,-33dB,Flat,B_2,1,0,1,0,0
10,stimuli/tones/FlatIEC-24dB.wav,2,35,noResp,NA,W_1,stimuli/Baron6dB/070200.wav,stimuli/Hopper/030201.wav,stimuli/Laker/020200.wav,NA,0,-24dB,Flat,W_1,1,0,1,0,0
10,stimuli/tones/silence.wav,1.25,36,noResp,NA,B_1,stimuli/Baron6dB/070000.wav,stimuli/Hopper/030303.wav,stimuli/Charlie/000301.wav,NA,1,silence,silence,B_1,1,0,0,1,0
10,stimuli/tones/silence.wav,0.75,37,noResp,NA,R_4,stimuli/Baron6dB/070103.wav,stimuli/Hopper/030200.wav,stimuli/Hopper/030203.wav,NA,1,silence,silence,R_4,1,0,0,1,0
10,stimuli/tones/silence.wav,2,38,noResp,NA,B_3,stimuli/Baron6dB/070002.wav,stimuli/Tiger/050200.wav,stimuli/Laker/020201.wav,NA,1,silence,silence,B_3,1,0,0,1,0
10,stimuli/tones/PercTri-27dB.wav,2,39,space,2.0668,B_2,stimuli/Baron6dB/070201.wav,stimuli/Tiger/050202.wav,stimuli/Tiger/050001.wav,NA,1,-27dB,PercTri,W_2,0,1,0,0,0
10,stimuli/tones/silence.wav,0.75,40,noResp,NA,G_2,stimuli/Baron6dB/070301.wav,stimuli/Eagle/060001.wav,stimuli/Ringo/010301.wav,NA,1,silence,silence,G_2,1,0,0,1,0
10,stimuli/tones/PercTri-30dB.wav,0.75,41,noResp,NA,R_3,stimuli/Baron6dB/070102.wav,stimuli/Eagle/060003.wav,stimuli/Ringo/010000.wav,NA,0,-30dB,PercTri,R_3,1,0,1,0,0
10,stimuli/tones/silence.wav,1.25,42,noResp,NA,B_4,stimuli/Baron6dB/070003.wav,stimuli/Tiger/050100.wav,stimuli/Ringo/010102.wav,NA,1,silence,silence,B_4,1,0,0,1,0
10,stimuli/tones/PercTri-30dB.wav,1.25,43,noResp,NA,W_3,stimuli/Baron6dB/070202.wav,stimuli/Hopper/030101.wav,stimuli/Ringo/010002.wav,NA,0,-30dB,PercTri,W_3,1,0,1,0,0
10,stimuli/tones/silence.wav,1.25,44,space,1.9403,W_2,stimuli/Baron6dB/070300.wav,stimuli/Eagle/060000.wav,stimuli/Tiger/050201.wav,NA,0,silence,silence,G_1,0,0,0,0,1
10,stimuli/tones/FlatIEC-27dB.wav,0.75,45,noResp,NA,R_1,stimuli/Baron6dB/070100.wav,stimuli/Hopper/030301.wav,stimuli/Eagle/060203.wav,NA,0,-27dB,Flat,R_1,1,0,1,0,0
10,stimuli/tones/PercTri-18dB.wav,1.25,46,noResp,NA,G_4,stimuli/Baron6dB/070303.wav,stimuli/Charlie/000300.wav,stimuli/Hopper/030300.wav,NA,0,-18dB,PercTri,G_4,1,0,1,0,0
10,stimuli/tones/silence.wav,2,47,noResp,NA,R_2,stimuli/Baron6dB/070101.wav,stimuli/Tiger/050002.wav,stimuli/Ringo/010303.wav,NA,1,silence,silence,R_2,1,0,0,1,0
10,stimuli/tones/silence.wav,0.75,48,noResp,NA,B_2,stimuli/Baron6dB/070001.wav,stimuli/Charlie/000101.wav,stimuli/Tiger/050101.wav,NA,1,silence,silence,B_2,1,0,0,1,0
10,stimuli/tones/silence.wav,1.25,49,noResp,NA,G_3,stimuli/Baron6dB/070302.wav,stimuli/Laker/020203.wav,stimuli/Eagle/060202.wav,NA,1,silence,silence,G_3,1,0,0,1,0
10,stimuli/tones/FlatIEC-33dB.wav,2,50,noResp,NA,B_1,stimuli/Baron6dB/070000.wav,stimuli/Laker/020101.wav,stimuli/Tiger/050003.wav,NA,0,-33dB,Flat,B_1,1,0,1,0,0
10,stimuli/tones/PercTri-30dB.wav,0.75,51,space,0.5506,W_1,stimuli/Baron6dB/070200.wav,stimuli/Eagle/060303.wav,stimuli/Laker/020003.wav,NA,1,-30dB,PercTri,W_1,1,1,0,0,0
10,stimuli/tones/PercTri-24dB.wav,2,52,space,1.0333,R_3,stimuli/Baron6dB/070102.wav,stimuli/Arrow/040200.wav,stimuli/Arrow/040103.wav,NA,1,-24dB,PercTri,R_3,1,1,0,0,0
10,stimuli/tones/silence.wav,0.75,53,noResp,NA,W_3,stimuli/Baron6dB/070202.wav,stimuli/Ringo/010302.wav,stimuli/Charlie/000203.wav,NA,1,silence,silence,W_3,1,0,0,1,0
10,stimuli/tones/PercTri-33dB.wav,2,54,noResp,NA,G_1,stimuli/Baron6dB/070003.wav,stimuli/Eagle/060203.wav,stimuli/Arrow/040300.wav,NA,0,-33dB,PercTri,B_4,0,0,1,0,0
10,stimuli/tones/silence.wav,1.25,55,noResp,NA,B_3,stimuli/Baron6dB/070002.wav,stimuli/Tiger/050302.wav,stimuli/Charlie/000002.wav,NA,1,silence,silence,B_3,1,0,0,1,0
10,stimuli/tones/PercTri-27dB.wav,1.25,56,noResp,NA,W_4,stimuli/Baron6dB/070203.wav,stimuli/Ringo/010202.wav,stimuli/Charlie/000100.wav,NA,0,-27dB,PercTri,W_4,1,0,1,0,0
10,stimuli/tones/FlatIEC-24dB.wav,0.75,57,space,2.1437,G_3,stimuli/Baron6dB/070303.wav,stimuli/Laker/020303.wav,stimuli/Tiger/050200.wav,NA,1,-24dB,Flat,G_4,0,1,0,0,0
10,stimuli/tones/FlatIEC-30dB.wav,0.75,58,noResp,NA,R_2,stimuli/Baron6dB/070101.wav,stimuli/Charlie/000202.wav,stimuli/Laker/020303.wav,NA,0,-30dB,Flat,R_2,1,0,1,0,0
10,stimuli/tones/FlatIEC-33dB.wav,1.25,59,space,2.1303,G_2,stimuli/Baron6dB/070301.wav,stimuli/Ringo/010002.wav,stimuli/Laker/020202.wav,NA,1,-33dB,Flat,G_2,1,1,0,0,0
10,stimuli/tones/FlatIEC-33dB.wav,0.75,60,noResp,NA,R_1,stimuli/Baron6dB/070100.wav,stimuli/Laker/020001.wav,stimuli/Ringo/010201.wav,NA,0,-33dB,Flat,R_1,1,0,1,0,0
10,stimuli/tones/silence.wav,1.25,61,space,0.1482,G_1,stimuli/Baron6dB/070300.wav,stimuli/Arrow/040301.wav,stimuli/Arrow/040000.wav,NA,0,silence,silence,G_1,1,0,0,0,1
10,stimuli/tones/FlatIEC-18dB.wav,2,62,space,2.7617,R_4,stimuli/Baron6dB/070103.wav,stimuli/Arrow/040300.wav,stimuli/Charlie/000303.wav,NA,1,-18dB,Flat,R_4,1,1,0,0,0
10,stimuli/tones/FlatIEC-30dB.wav,2,63,noResp,NA,W_2,stimuli/Baron6dB/070201.wav,stimuli/Hopper/030000.wav,stimuli/Laker/020001.wav,NA,0,-30dB,Flat,W_2,1,0,1,0,0
10,stimuli/tones/FlatIEC-21dB.wav,2,64,space,2.7204,B_1,stimuli/Baron6dB/070000.wav,stimuli/Charlie/000200.wav,stimuli/Arrow/040203.wav,NA,1,-21dB,Flat,B_1,1,1,0,0,0
10,stimuli/tones/silence.wav,0.75,65,noResp,NA,B_4,stimuli/Baron6dB/070003.wav,stimuli/Charlie/000003.wav,stimuli/Tiger/050100.wav,NA,1,silence,silence,B_4,1,0,0,1,0
10,stimuli/tones/silence.wav,0.75,66,noResp,NA,W_1,stimuli/Baron6dB/070200.wav,stimuli/Tiger/050201.wav,stimuli/Charlie/000202.wav,NA,1,silence,silence,W_1,1,0,0,1,0
10,stimuli/tones/FlatIEC-30dB.wav,1.25,67,space,2.8217,W_4,stimuli/Baron6dB/070203.wav,stimuli/Tiger/050300.wav,stimuli/Charlie/000201.wav,NA,1,-30dB,Flat,W_4,1,1,0,0,0
10,stimuli/tones/PercTri-24dB.wav,1.25,68,noResp,NA,W_3,stimuli/Baron6dB/070202.wav,stimuli/Arrow/040003.wav,stimuli/Eagle/060301.wav,NA,0,-24dB,PercTri,W_3,1,0,1,0,0
10,stimuli/tones/silence.wav,2,69,noResp,NA,W_2,stimuli/Baron6dB/070201.wav,stimuli/Arrow/040002.wav,stimuli/Tiger/050301.wav,NA,1,silence,silence,W_2,1,0,0,1,0
10,stimuli/tones/silence.wav,2,70,space,1.5234,G_4,stimuli/Baron6dB/070303.wav,stimuli/Laker/020200.wav,stimuli/Hopper/030103.wav,NA,0,silence,silence,G_4,1,0,0,0,1
10,stimuli/tones/silence.wav,0.75,71,noResp,NA,B_3,stimuli/Baron6dB/070002.wav,stimuli/Ringo/010000.wav,stimuli/Laker/020000.wav,NA,1,silence,silence,B_3,1,0,0,1,0
10,stimuli/tones/FlatIEC-27dB.wav,1.25,72,noResp,NA,B_2,stimuli/Baron6dB/070001.wav,stimuli/Tiger/050303.wav,stimuli/Tiger/050202.wav,NA,0,-27dB,Flat,B_2,1,0,1,0,0
10,stimuli/tones/silence.wav,1.25,73,noResp,NA,R_3,stimuli/Baron6dB/070102.wav,stimuli/Laker/020100.wav,stimuli/Charlie/000200.wav,NA,1,silence,silence,R_3,1,0,0,1,0
10,stimuli/tones/silence.wav,1.25,74,noResp,NA,G_1,stimuli/Baron6dB/070300.wav,stimuli/Ringo/010003.wav,stimuli/Ringo/010103.wav,NA,1,silence,silence,G_1,1,0,0,1,0
10,stimuli/tones/PercTri-27dB.wav,1.25,75,noResp,NA,G_2,stimuli/Baron6dB/070301.wav,stimuli/Charlie/000203.wav,stimuli/Arrow/040201.wav,NA,0,-27dB,PercTri,G_2,1,0,1,0,0
10,stimuli/tones/silence.wav,0.75,76,noResp,NA,G_3,stimuli/Baron6dB/070302.wav,stimuli/Eagle/060201.wav,stimuli/Eagle/060100.wav,NA,1,silence,silence,G_3,1,0,0,1,0
10,stimuli/tones/FlatIEC-24dB.wav,1.25,77,noResp,NA,R_1,stimuli/Baron6dB/070100.wav,stimuli/Hopper/030203.wav,stimuli/Charlie/000302.wav,NA,0,-24dB,Flat,R_1,1,0,1,0,0
10,stimuli/tones/FlatIEC-24dB.wav,1.25,78,space,0.2385,R_4,stimuli/Baron6dB/070103.wav,stimuli/Arrow/040100.wav,stimuli/Eagle/060103.wav,NA,1,-24dB,Flat,R_4,1,1,0,0,0
10,stimuli/tones/PercTri-21dB.wav,2,79,space,0.2599,R_2,stimuli/Baron6dB/070101.wav,stimuli/Laker/020201.wav,stimuli/Tiger/050103.wav,NA,1,-21dB,PercTri,R_2,1,1,0,0,0
10,stimuli/tones/silence.wav,2,80,noResp,NA,R_4,stimuli/Baron6dB/070103.wav,stimuli/Tiger/050101.wav,stimuli/Hopper/030303.wav,NA,1,silence,silence,R_4,1,0,0,1,0
10,stimuli/tones/silence.wav,1.25,81,space,0.1645,R_3,stimuli/Baron6dB/070102.wav,stimuli/Eagle/060103.wav,stimuli/Eagle/060003.wav,NA,0,silence,silence,R_3,1,0,0,0,1
10,stimuli/tones/silence.wav,2,82,space,0.3234,W_3,stimuli/Baron6dB/070202.wav,stimuli/Arrow/040001.wav,stimuli/Ringo/010203.wav,NA,0,silence,silence,W_3,1,0,0,0,1
10,stimuli/tones/silence.wav,2,83,noResp,NA,G_3,stimuli/Baron6dB/070302.wav,stimuli/Ringo/010301.wav,stimuli/Arrow/040100.wav,NA,1,silence,silence,G_3,1,0,0,1,0
10,stimuli/tones/PercTri-21dB.wav,1.25,84,space,0.4327,W_1,stimuli/Baron6dB/070203.wav,stimuli/Charlie/000102.wav,stimuli/Tiger/050300.wav,NA,1,-21dB,PercTri,W_4,0,1,0,0,0
10,stimuli/tones/silence.wav,1.25,85,noResp,NA,G_4,stimuli/Baron6dB/070303.wav,stimuli/Charlie/000302.wav,stimuli/Hopper/030302.wav,NA,1,silence,silence,G_4,1,0,0,1,0
10,stimuli/tones/silence.wav,2,86,noResp,NA,B_1,stimuli/Baron6dB/070000.wav,stimuli/Eagle/060002.wav,stimuli/Hopper/030202.wav,NA,1,silence,silence,B_1,1,0,0,1,0
10,stimuli/tones/PercTri-21dB.wav,1.25,87,noResp,NA,B_4,stimuli/Baron6dB/070003.wav,stimuli/Eagle/060302.wav,stimuli/Arrow/040302.wav,NA,0,-21dB,PercTri,B_4,1,0,1,0,0
10,stimuli/tones/FlatIEC-24dB.wav,0.75,88,noResp,NA,W_1,stimuli/Baron6dB/070200.wav,stimuli/Eagle/060300.wav,stimuli/Charlie/000300.wav,NA,0,-24dB,Flat,W_1,1,0,1,0,0
10,stimuli/tones/PercTri-18dB.wav,2,89,noResp,NA,B_2,stimuli/Baron6dB/070001.wav,stimuli/Tiger/050301.wav,stimuli/Arrow/040303.wav,NA,0,-18dB,PercTri,B_2,1,0,1,0,0
10,stimuli/tones/silence.wav,1.25,90,noResp,NA,B_3,stimuli/Baron6dB/070002.wav,stimuli/Eagle/060101.wav,stimuli/Hopper/030001.wav,NA,1,silence,silence,B_3,1,0,0,1,0
10,stimuli/tones/silence.wav,2,91,noResp,NA,G_1,stimuli/Baron6dB/070300.wav,stimuli/Tiger/050103.wav,stimuli/Eagle/060302.wav,NA,1,silence,silence,G_1,1,0,0,1,0
10,stimuli/tones/FlatIEC-30dB.wav,1.25,92,noResp,NA,R_1,stimuli/Baron6dB/070100.wav,stimuli/Charlie/000201.wav,stimuli/Hopper/030100.wav,NA,0,-30dB,Flat,R_1,1,0,1,0,0
10,stimuli/tones/FlatIEC-33dB.wav,0.75,93,space,0.2343,G_2,stimuli/Baron6dB/070301.wav,stimuli/Eagle/060100.wav,stimuli/Arrow/040200.wav,NA,1,-33dB,Flat,G_2,1,1,0,0,0
10,stimuli/tones/silence.wav,0.75,94,space,0.1265,W_2,stimuli/Baron6dB/070201.wav,stimuli/Laker/020003.wav,stimuli/Charlie/000103.wav,NA,0,silence,silence,W_2,1,0,0,0,1
10,stimuli/tones/silence.wav,2,95,noResp,NA,R_2,stimuli/Baron6dB/070101.wav,stimuli/Arrow/040103.wav,stimuli/Eagle/060200.wav,NA,1,silence,silence,R_2,1,0,0,1,0
10,stimuli/tones/silence.wav,2,96,noResp,NA,W_1,stimuli/Baron6dB/070200.wav,stimuli/Hopper/030002.wav,stimuli/Charlie/000003.wav,NA,1,silence,silence,W_1,1,0,0,1,0
10,stimuli/tones/PercTri-27dB.wav,2,97,noResp,NA,B_1,stimuli/Baron6dB/070000.wav,stimuli/Arrow/040302.wav,stimuli/Laker/020103.wav,NA,0,-27dB,PercTri,B_1,1,0,1,0,0
10,stimuli/tones/silence.wav,2,98,space,0.1354,R_2,stimuli/Baron6dB/070101.wav,stimuli/Hopper/030302.wav,stimuli/Ringo/010101.wav,NA,0,silence,silence,R_2,1,0,0,0,1
10,stimuli/tones/silence.wav,1.25,99,noResp,NA,W_2,stimuli/Baron6dB/070201.wav,stimuli/Laker/020102.wav,stimuli/Laker/020302.wav,NA,1,silence,silence,W_2,1,0,0,1,0
10,stimuli/tones/silence.wav,0.75,100,noResp,NA,G_2,stimuli/Baron6dB/070301.wav,stimuli/Ringo/010201.wav,stimuli/Hopper/030101.wav,NA,1,silence,silence,G_2,1,0,0,1,0
10,stimuli/tones/silence.wav,0.75,101,noResp,NA,W_3,stimuli/Baron6dB/070202.wav,stimuli/Ringo/010101.wav,stimuli/Arrow/040003.wav,NA,1,silence,silence,W_3,1,0,0,1,0
10,stimuli/tones/silence.wav,1.25,102,noResp,NA,B_2,stimuli/Baron6dB/070001.wav,stimuli/Arrow/040102.wav,stimuli/Eagle/060303.wav,NA,1,silence,silence,B_2,1,0,0,1,0
10,stimuli/tones/PercTri-24dB.wav,0.75,103,noResp,NA,G_1,stimuli/Baron6dB/070300.wav,stimuli/Laker/020301.wav,stimuli/Tiger/050303.wav,NA,0,-24dB,PercTri,G_1,1,0,1,0,0
10,stimuli/tones/silence.wav,1.25,104,space,0.2732,G_3,stimuli/Baron6dB/070302.wav,stimuli/Ringo/010200.wav,stimuli/Laker/020301.wav,NA,0,silence,silence,G_3,1,0,0,0,1
10,stimuli/tones/FlatIEC-24dB.wav,1.25,105,noResp,NA,R_1,stimuli/Baron6dB/070100.wav,stimuli/Tiger/050003.wav,stimuli/Arrow/040001.wav,NA,0,-24dB,Flat,R_1,1,0,1,0,0
10,stimuli/tones/PercTri-30dB.wav,1.25,106,space,0.1671,W_4,stimuli/Baron6dB/070203.wav,stimuli/Tiger/050000.wav,stimuli/Hopper/030003.wav,NA,1,-30dB,PercTri,W_4,1,1,0,0,0
10,stimuli/tones/PercTri-33dB.wav,0.75,107,noResp,NA,B_4,stimuli/Baron6dB/070003.wav,stimuli/Eagle/060102.wav,stimuli/Tiger/050002.wav,NA,0,-33dB,PercTri,B_4,1,0,1,0,0
10,stimuli/tones/silence.wav,0.75,108,noResp,NA,B_3,stimuli/Baron6dB/070002.wav,stimuli/Laker/020300.wav,stimuli/Laker/020102.wav,NA,1,silence,silence,B_3,1,0,0,1,0
10,stimuli/tones/FlatIEC-21dB.wav,2,109,space,2.8831,R_4,stimuli/Baron6dB/070103.wav,stimuli/Hopper/030100.wav,stimuli/Hopper/030301.wav,NA,1,-21dB,Flat,R_4,1,1,0,0,0
10,stimuli/tones/PercTri-27dB.wav,1.25,110,noResp,NA,G_4,stimuli/Baron6dB/070303.wav,stimuli/Hopper/030102.wav,stimuli/Ringo/010302.wav,NA,0,-27dB,PercTri,G_4,1,0,1,0,0
10,stimuli/tones/silence.wav,2,111,noResp,NA,R_3,stimuli/Baron6dB/070102.wav,stimuli/Charlie/000001.wav,stimuli/Eagle/060002.wav,NA,1,silence,silence,R_3,1,0,0,1,0
10,stimuli/tones/silence.wav,1.25,112,space,2.3057,B_3,stimuli/Baron6dB/070002.wav,stimuli/Tiger/050302.wav,stimuli/Charlie/000303.wav,NA,0,silence,silence,B_3,1,0,0,0,1
10,stimuli/tones/PercTri-24dB.wav,0.75,113,noResp,NA,W_3,stimuli/Baron6dB/070202.wav,stimuli/Eagle/060301.wav,stimuli/Arrow/040200.wav,NA,0,-24dB,PercTri,W_3,1,0,1,0,0
10,stimuli/tones/silence.wav,1.25,114,noResp,NA,B_4,stimuli/Baron6dB/070003.wav,stimuli/Charlie/000200.wav,stimuli/Charlie/000000.wav,NA,1,silence,silence,B_4,1,0,0,1,0
10,stimuli/tones/silence.wav,1.25,115,noResp,NA,G_4,stimuli/Baron6dB/070302.wav,stimuli/Laker/020100.wav,stimuli/Eagle/060101.wav,NA,1,silence,silence,G_3,0,0,0,1,0
10,stimuli/tones/FlatIEC-21dB.wav,2,116,space,2.7426,G_1,stimuli/Baron6dB/070300.wav,stimuli/Hopper/030001.wav,stimuli/Eagle/060003.wav,NA,1,-21dB,Flat,G_1,1,1,0,0,0
10,stimuli/tones/FlatIEC-30dB.wav,0.75,117,space,2.1291,G_4,stimuli/Baron6dB/070303.wav,stimuli/Charlie/000103.wav,stimuli/Ringo/010103.wav,NA,1,-30dB,Flat,G_4,1,1,0,0,0
10,stimuli/tones/PercTri-33dB.wav,0.75,118,noResp,NA,W_4,stimuli/Baron6dB/070203.wav,stimuli/Ringo/010002.wav,stimuli/Laker/020300.wav,NA,0,-33dB,PercTri,W_4,1,0,1,0,0
10,stimuli/tones/PercTri-18dB.wav,0.75,119,noResp,NA,R_2,stimuli/Baron6dB/070101.wav,stimuli/Tiger/050201.wav,stimuli/Arrow/040301.wav,NA,0,-18dB,PercTri,R_2,1,0,1,0,0
10,stimuli/tones/silence.wav,0.75,120,noResp,NA,B_1,stimuli/Baron6dB/070000.wav,stimuli/Arrow/040201.wav,stimuli/Eagle/060300.wav,NA,1,silence,silence,B_1,1,0,0,1,0
10,stimuli/tones/FlatIEC-27dB.wav,0.75,121,space,2.0921,B_1,stimuli/Baron6dB/070100.wav,stimuli/Arrow/040302.wav,stimuli/Ringo/010000.wav,NA,1,-27dB,Flat,R_1,0,1,0,0,0
10,stimuli/tones/silence.wav,0.75,122,space,1.6757,R_1,stimuli/Baron6dB/070200.wav,stimuli/Charlie/000301.wav,stimuli/Tiger/050300.wav,NA,0,silence,silence,W_1,0,0,0,0,1
10,stimuli/tones/FlatIEC-27dB.wav,0.75,123,space,2.7298,R_4,stimuli/Baron6dB/070103.wav,stimuli/Ringo/010203.wav,stimuli/Hopper/030303.wav,NA,1,-27dB,Flat,R_4,1,1,0,0,0
10,stimuli/tones/silence.wav,1.25,124,space,2.4717,W_2,stimuli/Baron6dB/070201.wav,stimuli/Charlie/000203.wav,stimuli/Eagle/060103.wav,NA,0,silence,silence,W_2,1,0,0,0,1
10,stimuli/tones/silence.wav,0.75,125,space,2.0508,B_2,stimuli/Baron6dB/070001.wav,stimuli/Hopper/030302.wav,stimuli/Laker/020102.wav,NA,0,silence,silence,B_2,1,0,0,0,1
10,stimuli/tones/silence.wav,0.75,126,noResp,NA,G_2,stimuli/Baron6dB/070301.wav,stimuli/Eagle/060201.wav,stimuli/Ringo/010203.wav,NA,1,silence,silence,G_2,1,0,0,1,0
10,stimuli/tones/silence.wav,1.25,127,space,0.1968,R_3,stimuli/Baron6dB/070102.wav,stimuli/Charlie/000002.wav,stimuli/Arrow/040303.wav,NA,0,silence,silence,R_3,1,0,0,0,1
10,stimuli/tones/PercTri-24dB.wav,1.25,128,noResp,NA,G_1,stimuli/Baron6dB/070300.wav,stimuli/Laker/020101.wav,stimuli/Charlie/000103.wav,NA,0,-24dB,PercTri,G_1,1,0,1,0,0
10,stimuli/tones/FlatIEC-27dB.wav,2,129,noResp,NA,B_4,stimuli/Baron6dB/070003.wav,stimuli/Laker/020000.wav,stimuli/Charlie/000101.wav,NA,0,-27dB,Flat,B_4,1,0,1,0,0
10,stimuli/tones/FlatIEC-24dB.wav,2,130,noResp,NA,R_3,stimuli/Baron6dB/070102.wav,stimuli/Ringo/010102.wav,stimuli/Tiger/050101.wav,NA,0,-24dB,Flat,R_3,1,0,1,0,0
10,stimuli/tones/silence.wav,2,131,space,2.1395,B_1,stimuli/Baron6dB/070100.wav,stimuli/Laker/020002.wav,stimuli/Laker/020000.wav,NA,0,silence,silence,R_1,0,0,0,0,1
10,stimuli/tones/PercTri-33dB.wav,1.25,132,noResp,NA,R_4,stimuli/Baron6dB/070103.wav,stimuli/Eagle/060300.wav,stimuli/Tiger/050301.wav,NA,0,-33dB,PercTri,R_4,1,0,1,0,0
10,stimuli/tones/silence.wav,2,133,noResp,NA,B_2,stimuli/Baron6dB/070001.wav,stimuli/Arrow/040202.wav,stimuli/Eagle/060203.wav,NA,1,silence,silence,B_2,1,0,0,1,0
10,stimuli/tones/silence.wav,2,134,noResp,NA,R_2,stimuli/Baron6dB/070101.wav,stimuli/Tiger/050001.wav,stimuli/Eagle/060202.wav,NA,1,silence,silence,R_2,1,0,0,1,0
10,stimuli/tones/silence.wav,1.25,135,noResp,NA,B_1,stimuli/Baron6dB/070000.wav,stimuli/Arrow/040103.wav,stimuli/Laker/020201.wav,NA,1,silence,silence,B_1,1,0,0,1,0
10,stimuli/tones/silence.wav,0.75,136,noResp,NA,W_4,stimuli/Baron6dB/070203.wav,stimuli/Laker/020102.wav,stimuli/Eagle/060002.wav,NA,1,silence,silence,W_4,1,0,0,1,0
10,stimuli/tones/silence.wav,2,137,noResp,NA,W_3,stimuli/Baron6dB/070202.wav,stimuli/Eagle/060103.wav,stimuli/Tiger/050003.wav,NA,1,silence,silence,W_3,1,0,0,1,0
10,stimuli/tones/silence.wav,2,138,space,1.175,G_4,stimuli/Baron6dB/070303.wav,stimuli/Arrow/040101.wav,stimuli/Hopper/030002.wav,NA,0,silence,silence,G_4,1,0,0,0,1
10,stimuli/tones/FlatIEC-21dB.wav,1.25,139,noResp,NA,G_3,stimuli/Baron6dB/070302.wav,stimuli/Charlie/000101.wav,stimuli/Eagle/060302.wav,NA,0,-21dB,Flat,G_3,1,0,1,0,0
10,stimuli/tones/silence.wav,2,140,noResp,NA,G_2,stimuli/Baron6dB/070301.wav,stimuli/Eagle/060000.wav,stimuli/Ringo/010001.wav,NA,1,silence,silence,G_2,1,0,0,1,0
10,stimuli/tones/FlatIEC-30dB.wav,1.25,141,space,1.4071,W_1,stimuli/Baron6dB/070200.wav,stimuli/Ringo/010100.wav,stimuli/Eagle/060000.wav,NA,1,-30dB,Flat,W_1,1,1,0,0,0
10,stimuli/tones/PercTri-27dB.wav,0.75,142,space,0.7553,W_2,stimuli/Baron6dB/070201.wav,stimuli/Ringo/010302.wav,stimuli/Ringo/010102.wav,NA,1,-27dB,PercTri,W_2,1,1,0,0,0
10,stimuli/tones/FlatIEC-24dB.wav,0.75,143,noResp,NA,B_3,stimuli/Baron6dB/070002.wav,stimuli/Laker/020200.wav,stimuli/Laker/020203.wav,NA,0,-24dB,Flat,B_3,1,0,1,0,0
10,stimuli/tones/PercTri-18dB.wav,1.25,144,noResp,NA,R_4,stimuli/Baron6dB/070103.wav,stimuli/Hopper/030202.wav,stimuli/Arrow/040103.wav,NA,0,-18dB,PercTri,R_4,1,0,1,0,0
10,stimuli/tones/FlatIEC-21dB.wav,0.75,145,noResp,NA,W_1,stimuli/Baron6dB/070200.wav,stimuli/Hopper/030200.wav,stimuli/Tiger/050200.wav,NA,0,-21dB,Flat,W_1,1,0,1,0,0
10,stimuli/tones/silence.wav,1.25,146,noResp,NA,W_2,stimuli/Baron6dB/070201.wav,stimuli/Hopper/030003.wav,stimuli/Arrow/040202.wav,NA,1,silence,silence,W_2,1,0,0,1,0
10,stimuli/tones/silence.wav,2,147,noResp,NA,G_1,stimuli/Baron6dB/070300.wav,stimuli/Ringo/010000.wav,stimuli/Tiger/050103.wav,NA,1,silence,silence,G_1,1,0,0,1,0
10,stimuli/tones/FlatIEC-18dB.wav,0.75,148,space,2.5859,W_3,stimuli/Baron6dB/070202.wav,stimuli/Hopper/030303.wav,stimuli/Tiger/050302.wav,NA,1,-18dB,Flat,W_3,1,1,0,0,0
10,stimuli/tones/PercTri-27dB.wav,0.75,149,noResp,NA,B_3,stimuli/Baron6dB/070002.wav,stimuli/Eagle/060203.wav,stimuli/Hopper/030200.wav,NA,0,-27dB,PercTri,B_3,1,0,1,0,0
10,stimuli/tones/silence.wav,0.75,150,noResp,NA,W_1,stimuli/Baron6dB/070203.wav,stimuli/Arrow/040303.wav,stimuli/Hopper/030300.wav,NA,1,silence,silence,W_4,0,0,0,1,0
10,stimuli/tones/FlatIEC-21dB.wav,0.75,151,noResp,NA,B_2,stimuli/Baron6dB/070001.wav,stimuli/Charlie/000202.wav,stimuli/Charlie/000003.wav,NA,0,-21dB,Flat,B_2,1,0,1,0,0
10,stimuli/tones/PercTri-30dB.wav,1.25,152,noResp,NA,R_2,stimuli/Baron6dB/070101.wav,stimuli/Charlie/000102.wav,stimuli/Ringo/010002.wav,NA,0,-30dB,PercTri,R_2,1,0,1,0,0
10,stimuli/tones/silence.wav,0.75,153,noResp,NA,G_3,stimuli/Baron6dB/070302.wav,stimuli/Arrow/040300.wav,stimuli/Laker/020103.wav,NA,1,silence,silence,G_3,1,0,0,1,0
10,stimuli/tones/silence.wav,1.25,154,noResp,NA,G_4,stimuli/Baron6dB/070303.wav,stimuli/Ringo/010101.wav,stimuli/Tiger/050201.wav,NA,1,silence,silence,G_4,1,0,0,1,0
10,stimuli/tones/silence.wav,2,155,noResp,NA,G_2,stimuli/Baron6dB/070301.wav,stimuli/Arrow/040002.wav,stimuli/Charlie/000200.wav,NA,1,silence,silence,G_2,1,0,0,1,0
10,stimuli/tones/FlatIEC-18dB.wav,2,156,noResp,NA,B_1,stimuli/Baron6dB/070000.wav,stimuli/Ringo/010103.wav,stimuli/Laker/020101.wav,NA,0,-18dB,Flat,B_1,1,0,1,0,0
10,stimuli/tones/PercTri-27dB.wav,0.75,157,space,2.0362,G_1,stimuli/Baron6dB/070100.wav,stimuli/Laker/020203.wav,stimuli/Ringo/010301.wav,NA,1,-27dB,PercTri,R_1,0,1,0,0,0
10,stimuli/tones/PercTri-24dB.wav,2,158,noResp,NA,R_3,stimuli/Baron6dB/070102.wav,stimuli/Hopper/030102.wav,stimuli/Eagle/060200.wav,NA,0,-24dB,PercTri,R_3,1,0,1,0,0
10,stimuli/tones/PercTri-21dB.wav,0.75,159,noResp,NA,B_2,stimuli/Baron6dB/070003.wav,stimuli/Eagle/060202.wav,stimuli/Hopper/030001.wav,NA,0,-21dB,PercTri,B_4,0,0,1,0,0
10,stimuli/tones/silence.wav,0.75,160,noResp,NA,W_4,stimuli/Baron6dB/070203.wav,stimuli/Eagle/060302.wav,stimuli/Eagle/060100.wav,NA,1,silence,silence,W_4,1,0,0,1,0
10,stimuli/tones/silence.wav,1.25,161,space,1.4574,R_2,stimuli/Baron6dB/070101.wav,stimuli/Hopper/030100.wav,stimuli/Ringo/010303.wav,NA,0,silence,silence,R_2,1,0,0,0,1
10,stimuli/tones/silence.wav,0.75,162,noResp,NA,R_3,stimuli/Baron6dB/070102.wav,stimuli/Laker/020202.wav,stimuli/Laker/020302.wav,NA,1,silence,silence,R_3,1,0,0,1,0
10,stimuli/tones/PercTri-21dB.wav,0.75,163,noResp,NA,W_1,stimuli/Baron6dB/070200.wav,stimuli/Charlie/000100.wav,stimuli/Charlie/000202.wav,NA,0,-21dB,PercTri,W_1,1,0,1,0,0
10,stimuli/tones/silence.wav,2,164,noResp,NA,W_2,stimuli/Baron6dB/070201.wav,stimuli/Hopper/030103.wav,stimuli/Ringo/010101.wav,NA,1,silence,silence,W_2,1,0,0,1,0
10,stimuli/tones/PercTri-30dB.wav,2,165,noResp,NA,B_2,stimuli/Baron6dB/070001.wav,stimuli/Laker/020201.wav,stimuli/Ringo/010201.wav,NA,0,-30dB,PercTri,B_2,1,0,1,0,0
10,stimuli/tones/silence.wav,2,166,noResp,NA,R_4,stimuli/Baron6dB/070103.wav,stimuli/Ringo/010003.wav,stimuli/Charlie/000300.wav,NA,1,silence,silence,R_4,1,0,0,1,0
10,stimuli/tones/silence.wav,2,167,noResp,NA,G_4,stimuli/Baron6dB/070303.wav,stimuli/Charlie/000000.wav,stimuli/Arrow/040101.wav,NA,1,silence,silence,G_4,1,0,0,1,0
10,stimuli/tones/silence.wav,1.25,168,space,0.8658,B_1,stimuli/Baron6dB/070000.wav,stimuli/Laker/020003.wav,stimuli/Eagle/060301.wav,NA,0,silence,silence,B_1,1,0,0,0,1
10,stimuli/tones/silence.wav,0.75,169,noResp,NA,B_3,stimuli/Baron6dB/070002.wav,stimuli/Arrow/040200.wav,stimuli/Tiger/050001.wav,NA,1,silence,silence,B_3,1,0,0,1,0
10,stimuli/tones/silence.wav,0.75,170,noResp,NA,G_3,stimuli/Baron6dB/070302.wav,stimuli/Ringo/010201.wav,stimuli/Hopper/030302.wav,NA,1,silence,silence,G_3,1,0,0,1,0
10,stimuli/tones/silence.wav,2,171,noResp,NA,G_2,stimuli/Baron6dB/070301.wav,stimuli/Eagle/060101.wav,stimuli/Hopper/030003.wav,NA,1,silence,silence,G_2,1,0,0,1,0
10,stimuli/tones/silence.wav,1.25,172,noResp,NA,G_1,stimuli/Baron6dB/070300.wav,stimuli/Tiger/050200.wav,stimuli/Laker/020303.wav,NA,1,silence,silence,G_1,1,0,0,1,0
10,stimuli/tones/silence.wav,2,173,noResp,NA,W_3,stimuli/Baron6dB/070202.wav,stimuli/Arrow/040000.wav,stimuli/Ringo/010200.wav,NA,1,silence,silence,W_3,1,0,0,1,0
10,stimuli/tones/silence.wav,1.25,174,noResp,NA,R_1,stimuli/Baron6dB/070100.wav,stimuli/Hopper/030300.wav,stimuli/Arrow/040002.wav,NA,1,silence,silence,R_1,1,0,0,1,0
10,stimuli/tones/FlatIEC-18dB.wav,1.25,175,noResp,NA,B_4,stimuli/Baron6dB/070003.wav,stimuli/Charlie/000001.wav,stimuli/Hopper/030101.wav,NA,0,-18dB,Flat,B_4,1,0,1,0,0
10,stimuli/tones/PercTri-33dB.wav,1.25,176,space,2.1526,B_3,stimuli/Baron6dB/070002.wav,stimuli/Tiger/050003.wav,stimuli/Charlie/000100.wav,NA,1,-33dB,PercTri,B_3,1,1,0,0,0
10,stimuli/tones/PercTri-24dB.wav,1.25,177,noResp,NA,W_3,stimuli/Baron6dB/070202.wav,stimuli/Eagle/060002.wav,stimuli/Arrow/040300.wav,NA,0,-24dB,PercTri,W_3,1,0,1,0,0
10,stimuli/tones/FlatIEC-33dB.wav,0.75,178,noResp,NA,R_4,stimuli/Baron6dB/070103.wav,stimuli/Tiger/050103.wav,stimuli/Arrow/040102.wav,NA,0,-33dB,Flat,R_4,1,0,1,0,0
10,stimuli/tones/PercTri-30dB.wav,0.75,179,space,0.113,R_1,stimuli/Baron6dB/070100.wav,stimuli/Hopper/030002.wav,stimuli/Hopper/030201.wav,NA,1,-30dB,PercTri,R_1,1,1,0,0,0
10,stimuli/tones/FlatIEC-27dB.wav,2,180,noResp,NA,W_4,stimuli/Baron6dB/070203.wav,stimuli/Eagle/060303.wav,stimuli/Tiger/050002.wav,NA,0,-27dB,Flat,W_4,1,0,1,0,0
10,stimuli/tones/FlatIEC-33dB.wav,1.25,181,noResp,NA,B_2,stimuli/Baron6dB/070001.wav,stimuli/Hopper/030301.wav,stimuli/Hopper/030102.wav,NA,0,-33dB,Flat,B_2,1,0,1,0,0
10,stimuli/tones/silence.wav,2,182,space,0.167,G_3,stimuli/Baron6dB/070302.wav,stimuli/Eagle/060003.wav,stimuli/Arrow/040000.wav,NA,0,silence,silence,G_3,1,0,0,0,1
10,stimuli/tones/silence.wav,1.25,183,space,0.3326,B_4,stimuli/Baron6dB/070003.wav,stimuli/Arrow/040203.wav,stimuli/Laker/020100.wav,NA,0,silence,silence,B_4,1,0,0,0,1
10,stimuli/tones/PercTri-33dB.wav,2,184,noResp,NA,W_2,stimuli/Baron6dB/070201.wav,stimuli/Tiger/050303.wav,stimuli/Tiger/050203.wav,NA,0,-33dB,PercTri,W_2,1,0,1,0,0
10,stimuli/tones/silence.wav,0.75,185,noResp,NA,G_1,stimuli/Baron6dB/070300.wav,stimuli/Tiger/050203.wav,stimuli/Arrow/040302.wav,NA,1,silence,silence,G_1,1,0,0,1,0
10,stimuli/tones/PercTri-30dB.wav,2,186,noResp,NA,R_3,stimuli/Baron6dB/070102.wav,stimuli/Eagle/060102.wav,stimuli/Charlie/000301.wav,NA,0,-30dB,PercTri,R_3,1,0,1,0,0
10,stimuli/tones/silence.wav,0.75,187,noResp,NA,R_2,stimuli/Baron6dB/070101.wav,stimuli/Ringo/010303.wav,stimuli/Laker/020301.wav,NA,1,silence,silence,R_2,1,0,0,1,0
10,stimuli/tones/silence.wav,0.75,188,noResp,NA,B_1,stimuli/Baron6dB/070000.wav,stimuli/Laker/020103.wav,stimuli/Ringo/010302.wav,NA,1,silence,silence,B_1,1,0,0,1,0
10,stimuli/tones/FlatIEC-30dB.wav,2,189,noResp,NA,G_4,stimuli/Baron6dB/070303.wav,stimuli/Tiger/050000.wav,stimuli/Laker/020002.wav,NA,0,-30dB,Flat,G_4,1,0,1,0,0
10,stimuli/tones/FlatIEC-21dB.wav,0.75,190,space,2.021,W_2,stimuli/Baron6dB/070301.wav,stimuli/Arrow/040100.wav,stimuli/Charlie/000102.wav,NA,1,-21dB,Flat,G_2,0,1,0,0,0
10,stimuli/tones/FlatIEC-27dB.wav,1.25,191,noResp,NA,W_1,stimuli/Baron6dB/070200.wav,stimuli/Tiger/050300.wav,stimuli/Tiger/050202.wav,NA,0,-27dB,Flat,W_1,1,0,1,0,0
10,stimuli/tones/silence.wav,0.75,192,noResp,NA,W_3,stimuli/Baron6dB/070202.wav,stimuli/Laker/020303.wav,stimuli/Eagle/060102.wav,NA,1,silence,silence,W_3,1,0,0,1,0
10,stimuli/tones/PercTri-21dB.wav,0.75,193,noResp,NA,G_4,stimuli/Baron6dB/070303.wav,stimuli/Laker/020300.wav,stimuli/Hopper/030103.wav,NA,0,-21dB,PercTri,G_4,1,0,1,0,0
10,stimuli/tones/FlatIEC-30dB.wav,2,194,noResp,NA,W_4,stimuli/Baron6dB/070203.wav,stimuli/Hopper/030203.wav,stimuli/Charlie/000203.wav,NA,0,-30dB,Flat,W_4,1,0,1,0,0
10,stimuli/tones/silence.wav,2,195,space,0.2498,R_3,stimuli/Baron6dB/070102.wav,stimuli/Ringo/010300.wav,stimuli/Laker/020001.wav,NA,0,silence,silence,R_3,1,0,0,0,1
10,stimuli/tones/silence.wav,2,196,space,0.9091,W_1,stimuli/Baron6dB/070200.wav,stimuli/Charlie/000302.wav,stimuli/Charlie/000201.wav,NA,0,silence,silence,W_1,1,0,0,0,1
10,stimuli/tones/PercTri-33dB.wav,2,197,noResp,NA,W_2,stimuli/Baron6dB/070201.wav,stimuli/Ringo/010200.wav,stimuli/Ringo/010100.wav,NA,0,-33dB,PercTri,W_2,1,0,1,0,0
10,stimuli/tones/silence.wav,1.25,198,noResp,NA,B_4,stimuli/Baron6dB/070003.wav,stimuli/Tiger/050202.wav,stimuli/Tiger/050303.wav,NA,1,silence,silence,B_4,1,0,0,1,0
10,stimuli/tones/FlatIEC-24dB.wav,2,199,space,3.6386,B_1,stimuli/Baron6dB/070000.wav,stimuli/Eagle/060200.wav,stimuli/Charlie/000302.wav,NA,1,-24dB,Flat,B_1,1,1,0,0,0
10,stimuli/tones/silence.wav,0.75,200,noResp,NA,B_2,stimuli/Baron6dB/070001.wav,stimuli/Eagle/060100.wav,stimuli/Charlie/000002.wav,NA,1,silence,silence,B_2,1,0,0,1,0
10,stimuli/tones/FlatIEC-18dB.wav,0.75,201,space,1.8969,G_3,stimuli/Baron6dB/070302.wav,stimuli/Charlie/000003.wav,stimuli/Arrow/040100.wav,NA,1,-18dB,Flat,G_3,1,1,0,0,0
10,stimuli/tones/silence.wav,1.25,202,noResp,NA,G_2,stimuli/Baron6dB/070301.wav,stimuli/Laker/020301.wav,stimuli/Arrow/040003.wav,NA,1,silence,silence,G_2,1,0,0,1,0
10,stimuli/tones/FlatIEC-27dB.wav,1.25,203,noResp,NA,R_4,stimuli/Baron6dB/070103.wav,stimuli/Charlie/000201.wav,stimuli/Hopper/030000.wav,NA,0,-27dB,Flat,R_4,1,0,1,0,0
10,stimuli/tones/silence.wav,2,204,noResp,NA,R_2,stimuli/Baron6dB/070101.wav,stimuli/Eagle/060001.wav,stimuli/Tiger/050000.wav,NA,1,silence,silence,R_2,1,0,0,1,0
10,stimuli/tones/FlatIEC-30dB.wav,0.75,205,noResp,NA,G_1,stimuli/Baron6dB/070300.wav,stimuli/Tiger/050301.wav,stimuli/Arrow/040201.wav,NA,0,-30dB,Flat,G_1,1,0,1,0,0
10,stimuli/tones/silence.wav,0.75,206,noResp,NA,B_3,stimuli/Baron6dB/070002.wav,stimuli/Charlie/000303.wav,stimuli/Ringo/010300.wav,NA,1,silence,silence,B_3,1,0,0,1,0
10,stimuli/tones/FlatIEC-33dB.wav,2,207,space,2.4192,R_1,stimuli/Baron6dB/070100.wav,stimuli/Hopper/030201.wav,stimuli/Ringo/010003.wav,NA,1,-33dB,Flat,R_1,1,1,0,0,0
10,stimuli/tones/PercTri-21dB.wav,1.25,208,space,2.82,G_3,stimuli/Baron6dB/070302.wav,stimuli/Ringo/010202.wav,stimuli/Eagle/060303.wav,NA,1,-21dB,PercTri,G_3,1,1,0,0,0
10,stimuli/tones/PercTri-27dB.wav,2,209,noResp,NA,W_2,stimuli/Baron6dB/070201.wav,stimuli/Ringo/010301.wav,stimuli/Eagle/060001.wav,NA,0,-27dB,PercTri,W_2,1,0,1,0,0
10,stimuli/tones/silence.wav,1.25,210,space,1.1449,B_1,stimuli/Baron6dB/070000.wav,stimuli/Ringo/010001.wav,stimuli/Laker/020202.wav,NA,0,silence,silence,B_1,1,0,0,0,1
10,stimuli/tones/silence.wav,1.25,211,noResp,NA,W_1,stimuli/Baron6dB/070203.wav,stimuli/Charlie/000300.wav,stimuli/Tiger/050100.wav,NA,1,silence,silence,W_4,0,0,0,1,0
10,stimuli/tones/PercTri-21dB.wav,2,212,noResp,NA,W_2,stimuli/Baron6dB/070001.wav,stimuli/Hopper/030000.wav,stimuli/Eagle/060201.wav,NA,0,-21dB,PercTri,B_2,0,0,1,0,0
10,stimuli/tones/silence.wav,0.75,213,noResp,NA,R_1,stimuli/Baron6dB/070100.wav,stimuli/Hopper/030101.wav,stimuli/Laker/020200.wav,NA,1,silence,silence,R_1,1,0,0,1,0
10,stimuli/tones/silence.wav,2,214,noResp,NA,B_3,stimuli/Baron6dB/070002.wav,stimuli/Tiger/050101.wav,stimuli/Laker/020003.wav,NA,1,silence,silence,B_3,1,0,0,1,0
10,stimuli/tones/silence.wav,1.25,215,noResp,NA,W_2,stimuli/Baron6dB/070202.wav,stimuli/Tiger/050102.wav,stimuli/Tiger/050102.wav,NA,1,silence,silence,W_3,0,0,0,1,0
11,stimuli/tones/silence.wav,1.25,0,noResp,NA,G_3,stimuli/Baron6dB/070302.wav,stimuli/Arrow/040200.wav,stimuli/Eagle/060003.wav,NA,1,silence,silence,G_3,1,0,0,1,0
11,stimuli/tones/PercTri-21dB.wav,1.25,1,space,1.7881,W_4,stimuli/Baron6dB/070203.wav,stimuli/Tiger/050100.wav,stimuli/Eagle/060201.wav,NA,1,-21dB,PercTri,W_4,1,1,0,0,0
11,stimuli/tones/silence.wav,2,2,noResp,NA,R_2,stimuli/Baron6dB/070101.wav,stimuli/Ringo/010000.wav,stimuli/Ringo/010001.wav,NA,1,silence,silence,R_2,1,0,0,1,0
11,stimuli/tones/FlatIEC-18dB.wav,0.75,3,space,1.9723,W_1,stimuli/Baron6dB/070200.wav,stimuli/Eagle/060301.wav,stimuli/Charlie/000301.wav,NA,1,-18dB,Flat,W_1,1,1,0,0,0
11,stimuli/tones/FlatIEC-33dB.wav,1.25,4,noResp,NA,B_4,stimuli/Baron6dB/070003.wav,stimuli/Tiger/050301.wav,stimuli/Tiger/050200.wav,NA,0,-33dB,Flat,B_4,1,0,1,0,0
11,stimuli/tones/FlatIEC-33dB.wav,1.25,5,space,2.7389,B_1,stimuli/Baron6dB/070000.wav,stimuli/Arrow/040303.wav,stimuli/Tiger/050301.wav,NA,1,-33dB,Flat,B_1,1,1,0,0,0
11,stimuli/tones/PercTri-27dB.wav,1.25,6,space,1.7982,B_2,stimuli/Baron6dB/070001.wav,stimuli/Ringo/010102.wav,stimuli/Hopper/030103.wav,NA,1,-27dB,PercTri,B_2,1,1,0,0,0
11,stimuli/tones/FlatIEC-33dB.wav,0.75,7,noResp,NA,R_1,stimuli/Baron6dB/070100.wav,stimuli/Eagle/060002.wav,stimuli/Ringo/010102.wav,NA,0,-33dB,Flat,R_1,1,0,1,0,0
11,stimuli/tones/silence.wav,1.25,8,noResp,NA,G_2,stimuli/Baron6dB/070301.wav,stimuli/Tiger/050303.wav,stimuli/Hopper/030100.wav,NA,1,silence,silence,G_2,1,0,0,1,0
11,stimuli/tones/silence.wav,1.25,9,noResp,NA,R_3,stimuli/Baron6dB/070102.wav,stimuli/Laker/020202.wav,stimuli/Eagle/060100.wav,NA,1,silence,silence,R_3,1,0,0,1,0
11,stimuli/tones/silence.wav,2,10,noResp,NA,W_3,stimuli/Baron6dB/070202.wav,stimuli/Ringo/010302.wav,stimuli/Laker/020103.wav,NA,1,silence,silence,W_3,1,0,0,1,0
11,stimuli/tones/silence.wav,0.75,11,noResp,NA,W_4,stimuli/Baron6dB/070103.wav,stimuli/Laker/020003.wav,stimuli/Tiger/050102.wav,NA,1,silence,silence,R_4,0,0,0,1,0
11,stimuli/tones/PercTri-18dB.wav,0.75,12,space,1.3395,B_3,stimuli/Baron6dB/070002.wav,stimuli/Laker/020100.wav,stimuli/Charlie/000303.wav,NA,1,-18dB,PercTri,B_3,1,1,0,0,0
11,stimuli/tones/silence.wav,1.25,13,noResp,NA,W_2,stimuli/Baron6dB/070201.wav,stimuli/Eagle/060300.wav,stimuli/Hopper/030202.wav,NA,1,silence,silence,W_2,1,0,0,1,0
11,stimuli/tones/silence.wav,0.75,14,noResp,NA,G_4,stimuli/Baron6dB/070303.wav,stimuli/Eagle/060200.wav,stimuli/Tiger/050002.wav,NA,1,silence,silence,G_4,1,0,0,1,0
11,stimuli/tones/PercTri-21dB.wav,1.25,15,space,1.8719,G_1,stimuli/Baron6dB/070300.wav,stimuli/Eagle/060100.wav,stimuli/Laker/020002.wav,NA,1,-21dB,PercTri,G_1,1,1,0,0,0
11,stimuli/tones/FlatIEC-30dB.wav,0.75,16,noResp,NA,W_2,stimuli/Baron6dB/070201.wav,stimuli/Charlie/000100.wav,stimuli/Hopper/030102.wav,NA,0,-30dB,Flat,W_2,1,0,1,0,0
11,stimuli/tones/PercTri-33dB.wav,0.75,17,noResp,NA,R_4,stimuli/Baron6dB/070103.wav,stimuli/Eagle/060101.wav,stimuli/Arrow/040102.wav,NA,0,-33dB,PercTri,R_4,1,0,1,0,0
11,stimuli/tones/FlatIEC-33dB.wav,2,18,space,2.8116,R_1,stimuli/Baron6dB/070100.wav,stimuli/Eagle/060203.wav,stimuli/Tiger/050202.wav,NA,1,-33dB,Flat,R_1,1,1,0,0,0
11,stimuli/tones/silence.wav,1.25,19,noResp,NA,G_3,stimuli/Baron6dB/070302.wav,stimuli/Charlie/000002.wav,stimuli/Charlie/000300.wav,NA,1,silence,silence,G_3,1,0,0,1,0
11,stimuli/tones/silence.wav,0.75,20,noResp,NA,B_1,stimuli/Baron6dB/070000.wav,stimuli/Ringo/010303.wav,stimuli/Charlie/000101.wav,NA,1,silence,silence,B_1,1,0,0,1,0
11,stimuli/tones/silence.wav,1.25,21,noResp,NA,R_3,stimuli/Baron6dB/070102.wav,stimuli/Hopper/030103.wav,stimuli/Eagle/060001.wav,NA,1,silence,silence,R_3,1,0,0,1,0
11,stimuli/tones/PercTri-18dB.wav,0.75,22,space,1.3387,B_3,stimuli/Baron6dB/070002.wav,stimuli/Tiger/050203.wav,stimuli/Hopper/030000.wav,NA,1,-18dB,PercTri,B_3,1,1,0,0,0
11,stimuli/tones/PercTri-33dB.wav,0.75,23,noResp,NA,W_3,stimuli/Baron6dB/070202.wav,stimuli/Arrow/040002.wav,stimuli/Ringo/010200.wav,NA,0,-33dB,PercTri,W_3,1,0,1,0,0
11,stimuli/tones/silence.wav,2,24,noResp,NA,W_4,stimuli/Baron6dB/070203.wav,stimuli/Ringo/010002.wav,stimuli/Laker/020202.wav,NA,1,silence,silence,W_4,1,0,0,1,0
11,stimuli/tones/FlatIEC-21dB.wav,2,25,space,2.783,G_4,stimuli/Baron6dB/070303.wav,stimuli/Hopper/030201.wav,stimuli/Laker/020101.wav,NA,1,-21dB,Flat,G_4,1,1,0,0,0
11,stimuli/tones/PercTri-18dB.wav,2,26,space,2.7746,B_2,stimuli/Baron6dB/070001.wav,stimuli/Tiger/050000.wav,stimuli/Eagle/060000.wav,NA,1,-18dB,PercTri,B_2,1,1,0,0,0
11,stimuli/tones/FlatIEC-30dB.wav,0.75,27,noResp,NA,G_2,stimuli/Baron6dB/070301.wav,stimuli/Tiger/050102.wav,stimuli/Arrow/040302.wav,NA,0,-30dB,Flat,G_2,1,0,1,0,0
11,stimuli/tones/silence.wav,0.75,28,noResp,NA,R_2,stimuli/Baron6dB/070101.wav,stimuli/Charlie/000300.wav,stimuli/Tiger/050000.wav,NA,1,silence,silence,R_2,1,0,0,1,0
11,stimuli/tones/FlatIEC-27dB.wav,1.25,29,noResp,NA,G_1,stimuli/Baron6dB/070300.wav,stimuli/Charlie/000103.wav,stimuli/Arrow/040002.wav,NA,0,-27dB,Flat,G_1,1,0,1,0,0
11,stimuli/tones/silence.wav,1.25,30,space,0.1129,B_4,stimuli/Baron6dB/070003.wav,stimuli/Tiger/050103.wav,stimuli/Eagle/060102.wav,NA,0,silence,silence,B_4,1,0,0,0,1
11,stimuli/tones/PercTri-24dB.wav,0.75,31,space,1.2742,W_1,stimuli/Baron6dB/070200.wav,stimuli/Charlie/000001.wav,stimuli/Arrow/040100.wav,NA,1,-24dB,PercTri,W_1,1,1,0,0,0
11,stimuli/tones/silence.wav,1.25,32,noResp,NA,B_3,stimuli/Baron6dB/070002.wav,stimuli/Arrow/040201.wav,stimuli/Laker/020302.wav,NA,1,silence,silence,B_3,1,0,0,1,0
11,stimuli/tones/silence.wav,0.75,33,noResp,NA,R_3,stimuli/Baron6dB/070102.wav,stimuli/Laker/020101.wav,stimuli/Charlie/000000.wav,NA,1,silence,silence,R_3,1,0,0,1,0
11,stimuli/tones/silence.wav,1.25,34,noResp,NA,R_1,stimuli/Baron6dB/070100.wav,stimuli/Arrow/040001.wav,stimuli/Ringo/010201.wav,NA,1,silence,silence,R_1,1,0,0,1,0
11,stimuli/tones/PercTri-27dB.wav,0.75,35,space,1.3704,G_3,stimuli/Baron6dB/070302.wav,stimuli/Charlie/000200.wav,stimuli/Hopper/030001.wav,NA,1,-27dB,PercTri,G_3,1,1,0,0,0
11,stimuli/tones/PercTri-30dB.wav,2,36,noResp,NA,W_3,stimuli/Baron6dB/070202.wav,stimuli/Arrow/040301.wav,stimuli/Eagle/060002.wav,NA,0,-30dB,PercTri,W_3,1,0,1,0,0
11,stimuli/tones/silence.wav,0.75,37,noResp,NA,G_1,stimuli/Baron6dB/070300.wav,stimuli/Eagle/060103.wav,stimuli/Ringo/010103.wav,NA,1,silence,silence,G_1,1,0,0,1,0
11,stimuli/tones/FlatIEC-24dB.wav,2,38,noResp,NA,W_4,stimuli/Baron6dB/070203.wav,stimuli/Charlie/000003.wav,stimuli/Ringo/010000.wav,NA,0,-24dB,Flat,W_4,1,0,1,0,0
11,stimuli/tones/silence.wav,0.75,39,space,0.2819,R_2,stimuli/Baron6dB/070101.wav,stimuli/Tiger/050200.wav,stimuli/Laker/020000.wav,NA,0,silence,silence,R_2,1,0,0,0,1
11,stimuli/tones/PercTri-27dB.wav,2,40,space,2.634,W_1,stimuli/Baron6dB/070200.wav,stimuli/Charlie/000102.wav,stimuli/Ringo/010303.wav,NA,1,-27dB,PercTri,W_1,1,1,0,0,0
11,stimuli/tones/FlatIEC-30dB.wav,1.25,41,space,2.921,R_4,stimuli/Baron6dB/070103.wav,stimuli/Hopper/030203.wav,stimuli/Hopper/030302.wav,NA,1,-30dB,Flat,R_4,1,1,0,0,0
11,stimuli/tones/silence.wav,2,42,noResp,NA,G_2,stimuli/Baron6dB/070301.wav,stimuli/Tiger/050300.wav,stimuli/Ringo/010300.wav,NA,1,silence,silence,G_2,1,0,0,1,0
11,stimuli/tones/PercTri-24dB.wav,0.75,43,space,1.4291,B_2,stimuli/Baron6dB/070001.wav,stimuli/Ringo/010103.wav,stimuli/Eagle/060101.wav,NA,1,-24dB,PercTri,B_2,1,1,0,0,0
11,stimuli/tones/silence.wav,0.75,44,noResp,NA,G_4,stimuli/Baron6dB/070303.wav,stimuli/Hopper/030303.wav,stimuli/Hopper/030300.wav,NA,1,silence,silence,G_4,1,0,0,1,0
11,stimuli/tones/PercTri-24dB.wav,2,45,space,2.586,B_4,stimuli/Baron6dB/070003.wav,stimuli/Laker/020103.wav,stimuli/Tiger/050303.wav,NA,1,-24dB,PercTri,B_4,1,1,0,0,0
11,stimuli/tones/FlatIEC-18dB.wav,2,46,noResp,NA,B_1,stimuli/Baron6dB/070000.wav,stimuli/Charlie/000302.wav,stimuli/Tiger/050203.wav,NA,0,-18dB,Flat,B_1,1,0,1,0,0
11,stimuli/tones/silence.wav,2,47,space,0.0236,W_2,stimuli/Baron6dB/070201.wav,stimuli/Laker/020300.wav,stimuli/Ringo/010302.wav,NA,0,silence,silence,W_2,1,0,0,0,1
11,stimuli/tones/silence.wav,2,48,noResp,NA,G_4,stimuli/Baron6dB/070303.wav,stimuli/Hopper/030301.wav,stimuli/Arrow/040000.wav,NA,1,silence,silence,G_4,1,0,0,1,0
11,stimuli/tones/FlatIEC-21dB.wav,1.25,49,noResp,NA,W_3,stimuli/Baron6dB/070202.wav,stimuli/Arrow/040100.wav,stimuli/Ringo/010202.wav,NA,0,-21dB,Flat,W_3,1,0,1,0,0
11,stimuli/tones/silence.wav,0.75,50,space,0.0878,W_4,stimuli/Baron6dB/070103.wav,stimuli/Eagle/060303.wav,stimuli/Tiger/050103.wav,NA,0,silence,silence,R_4,0,0,0,0,1
11,stimuli/tones/FlatIEC-33dB.wav,0.75,51,noResp,NA,G_3,stimuli/Baron6dB/070302.wav,stimuli/Laker/020203.wav,stimuli/Hopper/030301.wav,NA,0,-33dB,Flat,G_3,1,0,1,0,0
11,stimuli/tones/FlatIEC-27dB.wav,0.75,52,noResp,NA,B_2,stimuli/Baron6dB/070001.wav,stimuli/Ringo/010101.wav,stimuli/Arrow/040001.wav,NA,0,-27dB,Flat,B_2,1,0,1,0,0
11,stimuli/tones/FlatIEC-30dB.wav,0.75,53,noResp,NA,R_2,stimuli/Baron6dB/070101.wav,stimuli/Hopper/030002.wav,stimuli/Laker/020300.wav,NA,0,-30dB,Flat,R_2,1,0,1,0,0
11,stimuli/tones/silence.wav,0.75,54,noResp,NA,B_1,stimuli/Baron6dB/070000.wav,stimuli/Arrow/040300.wav,stimuli/Tiger/050302.wav,NA,1,silence,silence,B_1,1,0,0,1,0
11,stimuli/tones/PercTri-33dB.wav,2,55,noResp,NA,G_2,stimuli/Baron6dB/070301.wav,stimuli/Arrow/040103.wav,stimuli/Charlie/000100.wav,NA,0,-33dB,PercTri,G_2,1,0,1,0,0
11,stimuli/tones/PercTri-21dB.wav,2,56,space,2.6491,B_4,stimuli/Baron6dB/070003.wav,stimuli/Eagle/060302.wav,stimuli/Arrow/040303.wav,NA,1,-21dB,PercTri,B_4,1,1,0,0,0
11,stimuli/tones/silence.wav,2,57,noResp,NA,R_1,stimuli/Baron6dB/070100.wav,stimuli/Charlie/000301.wav,stimuli/Ringo/010101.wav,NA,1,silence,silence,R_1,1,0,0,1,0
11,stimuli/tones/PercTri-30dB.wav,0.75,58,noResp,NA,B_3,stimuli/Baron6dB/070002.wav,stimuli/Ringo/010301.wav,stimuli/Charlie/000302.wav,NA,0,-30dB,PercTri,B_3,1,0,1,0,0
11,stimuli/tones/FlatIEC-21dB.wav,0.75,59,noResp,NA,W_1,stimuli/Baron6dB/070200.wav,stimuli/Ringo/010200.wav,stimuli/Ringo/010100.wav,NA,0,-21dB,Flat,W_1,1,0,1,0,0
11,stimuli/tones/PercTri-30dB.wav,2,60,space,0.5568,R_2,stimuli/Baron6dB/070201.wav,stimuli/Hopper/030102.wav,stimuli/Ringo/010002.wav,NA,1,-30dB,PercTri,W_2,0,1,0,0,0
11,stimuli/tones/silence.wav,1.25,61,noResp,NA,G_1,stimuli/Baron6dB/070300.wav,stimuli/Eagle/060000.wav,stimuli/Charlie/000201.wav,NA,1,silence,silence,G_1,1,0,0,1,0
11,stimuli/tones/PercTri-18dB.wav,1.25,62,space,2.0329,W_4,stimuli/Baron6dB/070203.wav,stimuli/Laker/020200.wav,stimuli/Hopper/030303.wav,NA,1,-18dB,PercTri,W_4,1,1,0,0,0
11,stimuli/tones/silence.wav,1.25,63,noResp,NA,R_3,stimuli/Baron6dB/070102.wav,stimuli/Charlie/000203.wav,stimuli/Ringo/010203.wav,NA,1,silence,silence,R_3,1,0,0,1,0
11,stimuli/tones/FlatIEC-30dB.wav,1.25,64,noResp,NA,G_1,stimuli/Baron6dB/070300.wav,stimuli/Laker/020303.wav,stimuli/Hopper/030101.wav,NA,0,-30dB,Flat,G_1,1,0,1,0,0
11,stimuli/tones/silence.wav,1.25,65,space,0.1371,W_1,stimuli/Baron6dB/070200.wav,stimuli/Laker/020001.wav,stimuli/Charlie/000102.wav,NA,0,silence,silence,W_1,1,0,0,0,1
11,stimuli/tones/PercTri-21dB.wav,2,66,space,3.449,W_3,stimuli/Baron6dB/070102.wav,stimuli/Ringo/010203.wav,stimuli/Arrow/040200.wav,NA,1,-21dB,PercTri,R_3,0,1,0,0,0
11,stimuli/tones/PercTri-30dB.wav,0.75,67,noResp,NA,R_4,stimuli/Baron6dB/070103.wav,stimuli/Laker/020102.wav,stimuli/Laker/020100.wav,NA,0,-30dB,PercTri,R_4,1,0,1,0,0
11,stimuli/tones/silence.wav,0.75,68,noResp,NA,B_4,stimuli/Baron6dB/070003.wav,stimuli/Hopper/030300.wav,stimuli/Arrow/040300.wav,NA,1,silence,silence,B_4,1,0,0,1,0
11,stimuli/tones/silence.wav,2,69,noResp,NA,G_4,stimuli/Baron6dB/070303.wav,stimuli/Arrow/040203.wav,stimuli/Eagle/060302.wav,NA,1,silence,silence,G_4,1,0,0,1,0
11,stimuli/tones/silence.wav,2,70,noResp,NA,B_2,stimuli/Baron6dB/070001.wav,stimuli/Tiger/050302.wav,stimuli/Tiger/050101.wav,NA,1,silence,silence,B_2,1,0,0,1,0
11,stimuli/tones/PercTri-33dB.wav,1.25,71,noResp,NA,B_3,stimuli/Baron6dB/070002.wav,stimuli/Tiger/050001.wav,stimuli/Charlie/000002.wav,NA,0,-33dB,PercTri,B_3,1,0,1,0,0
11,stimuli/tones/FlatIEC-21dB.wav,0.75,72,noResp,NA,R_2,stimuli/Baron6dB/070101.wav,stimuli/Laker/020002.wav,stimuli/Laker/020303.wav,NA,0,-21dB,Flat,R_2,1,0,1,0,0
11,stimuli/tones/silence.wav,2,73,noResp,NA,B_1,stimuli/Baron6dB/070000.wav,stimuli/Arrow/040000.wav,stimuli/Charlie/000200.wav,NA,1,silence,silence,B_1,1,0,0,1,0
11,stimuli/tones/silence.wav,2,74,noResp,NA,W_4,stimuli/Baron6dB/070203.wav,stimuli/Laker/020302.wav,stimuli/Laker/020203.wav,NA,1,silence,silence,W_4,1,0,0,1,0
11,stimuli/tones/PercTri-21dB.wav,1.25,75,space,1.8849,W_3,stimuli/Baron6dB/070202.wav,stimuli/Tiger/050201.wav,stimuli/Charlie/000103.wav,NA,1,-21dB,PercTri,W_3,1,1,0,0,0
11,stimuli/tones/FlatIEC-30dB.wav,2,76,noResp,NA,W_2,stimuli/Baron6dB/070201.wav,stimuli/Charlie/000000.wav,stimuli/Arrow/040201.wav,NA,0,-30dB,Flat,W_2,1,0,1,0,0
11,stimuli/tones/silence.wav,0.75,77,space,0.1864,G_3,stimuli/Baron6dB/070302.wav,stimuli/Arrow/040102.wav,stimuli/Laker/020301.wav,NA,0,silence,silence,G_3,1,0,0,0,1
11,stimuli/tones/FlatIEC-27dB.wav,1.25,78,noResp,NA,W_1,stimuli/Baron6dB/070100.wav,stimuli/Eagle/060201.wav,stimuli/Eagle/060103.wav,NA,0,-27dB,Flat,R_1,0,0,1,0,0
11,stimuli/tones/silence.wav,2,79,noResp,NA,G_2,stimuli/Baron6dB/070301.wav,stimuli/Hopper/030302.wav,stimuli/Ringo/010301.wav,NA,1,silence,silence,G_2,1,0,0,1,0
11,stimuli/tones/silence.wav,1.25,80,noResp,NA,G_2,stimuli/Baron6dB/070301.wav,stimuli/Tiger/050202.wav,stimuli/Laker/020003.wav,NA,1,silence,silence,G_2,1,0,0,1,0
11,stimuli/tones/PercTri-33dB.wav,2,81,noResp,NA,G_3,stimuli/Baron6dB/070302.wav,stimuli/Arrow/040302.wav,stimuli/Eagle/060200.wav,NA,0,-33dB,PercTri,G_3,1,0,1,0,0
11,stimuli/tones/FlatIEC-24dB.wav,1.25,82,space,2.7484,G_1,stimuli/Baron6dB/070300.wav,stimuli/Arrow/040003.wav,stimuli/Eagle/060203.wav,NA,1,-24dB,Flat,G_1,1,1,0,0,0
11,stimuli/tones/FlatIEC-27dB.wav,2,83,noResp,NA,B_2,stimuli/Baron6dB/070001.wav,stimuli/Tiger/050101.wav,stimuli/Hopper/030203.wav,NA,0,-27dB,Flat,B_2,1,0,1,0,0
11,stimuli/tones/silence.wav,0.75,84,space,0.2725,W_1,stimuli/Baron6dB/070200.wav,stimuli/Hopper/030200.wav,stimuli/Charlie/000003.wav,NA,0,silence,silence,W_1,1,0,0,0,1
11,stimuli/tones/FlatIEC-24dB.wav,2,85,noResp,NA,R_3,stimuli/Baron6dB/070102.wav,stimuli/Ringo/010300.wav,stimuli/Tiger/050001.wav,NA,0,-24dB,Flat,R_3,1,0,1,0,0
11,stimuli/tones/PercTri-30dB.wav,1.25,86,space,0.2886,B_3,stimuli/Baron6dB/070002.wav,stimuli/Ringo/010201.wav,stimuli/Eagle/060303.wav,NA,1,-30dB,PercTri,B_3,1,1,0,0,0
11,stimuli/tones/silence.wav,2,87,noResp,NA,B_4,stimuli/Baron6dB/070003.wav,stimuli/Charlie/000101.wav,stimuli/Laker/020201.wav,NA,1,silence,silence,B_4,1,0,0,1,0
11,stimuli/tones/silence.wav,1.25,88,noResp,NA,W_4,stimuli/Baron6dB/070203.wav,stimuli/Tiger/050002.wav,stimuli/Hopper/030003.wav,NA,1,silence,silence,W_4,1,0,0,1,0
11,stimuli/tones/silence.wav,1.25,89,noResp,NA,R_1,stimuli/Baron6dB/070100.wav,stimuli/Hopper/030001.wav,stimuli/Eagle/060301.wav,NA,1,silence,silence,R_1,1,0,0,1,0
11,stimuli/tones/FlatIEC-21dB.wav,1.25,90,space,2.4189,R_4,stimuli/Baron6dB/070103.wav,stimuli/Ringo/010003.wav,stimuli/Arrow/040203.wav,NA,1,-21dB,Flat,R_4,1,1,0,0,0
11,stimuli/tones/FlatIEC-18dB.wav,1.25,91,space,1.9339,W_4,stimuli/Baron6dB/070303.wav,stimuli/Hopper/030100.wav,stimuli/Charlie/000203.wav,NA,1,-18dB,Flat,G_4,0,1,0,0,0
11,stimuli/tones/silence.wav,1.25,92,noResp,NA,R_2,stimuli/Baron6dB/070101.wav,stimuli/Charlie/000201.wav,stimuli/Laker/020001.wav,NA,1,silence,silence,R_2,1,0,0,1,0
11,stimuli/tones/PercTri-18dB.wav,0.75,93,space,1.2749,W_3,stimuli/Baron6dB/070202.wav,stimuli/Laker/020000.wav,stimuli/Charlie/000202.wav,NA,1,-18dB,PercTri,W_3,1,1,0,0,0
11,stimuli/tones/FlatIEC-27dB.wav,0.75,94,noResp,NA,W_2,stimuli/Baron6dB/070201.wav,stimuli/Tiger/050003.wav,stimuli/Arrow/040003.wav,NA,0,-27dB,Flat,W_2,1,0,1,0,0
11,stimuli/tones/silence.wav,1.25,95,noResp,NA,B_1,stimuli/Baron6dB/070000.wav,stimuli/Hopper/030003.wav,stimuli/Arrow/040103.wav,NA,1,silence,silence,B_1,1,0,0,1,0
11,stimuli/tones/PercTri-33dB.wav,1.25,96,noResp,NA,W_2,stimuli/Baron6dB/070201.wav,stimuli/Laker/020201.wav,stimuli/Tiger/050100.wav,NA,0,-33dB,PercTri,W_2,1,0,1,0,0
11,stimuli/tones/PercTri-18dB.wav,1.25,97,space,1.9212,B_3,stimuli/Baron6dB/070002.wav,stimuli/Eagle/060102.wav,stimuli/Laker/020200.wav,NA,1,-18dB,PercTri,B_3,1,1,0,0,0
11,stimuli/tones/FlatIEC-24dB.wav,0.75,98,noResp,NA,R_4,stimuli/Baron6dB/070103.wav,stimuli/Arrow/040101.wav,stimuli/Hopper/030200.wav,NA,0,-24dB,Flat,R_4,1,0,1,0,0
11,stimuli/tones/PercTri-21dB.wav,0.75,99,space,1.5657,W_1,stimuli/Baron6dB/070200.wav,stimuli/Eagle/060003.wav,stimuli/Arrow/040301.wav,NA,1,-21dB,PercTri,W_1,1,1,0,0,0
11,stimuli/tones/silence.wav,1.25,100,noResp,NA,R_3,stimuli/Baron6dB/070102.wav,stimuli/Ringo/010001.wav,stimuli/Eagle/060300.wav,NA,1,silence,silence,R_3,1,0,0,1,0
11,stimuli/tones/silence.wav,2,101,noResp,NA,B_2,stimuli/Baron6dB/070001.wav,stimuli/Hopper/030101.wav,stimuli/Arrow/040101.wav,NA,1,silence,silence,B_2,1,0,0,1,0
11,stimuli/tones/silence.wav,1.25,102,noResp,NA,G_3,stimuli/Baron6dB/070302.wav,stimuli/Arrow/040202.wav,stimuli/Charlie/000001.wav,NA,1,silence,silence,G_3,1,0,0,1,0
11,stimuli/tones/FlatIEC-27dB.wav,2,103,noResp,NA,W_3,stimuli/Baron6dB/070202.wav,stimuli/Hopper/030202.wav,stimuli/Tiger/050300.wav,NA,0,-27dB,Flat,W_3,1,0,1,0,0
11,stimuli/tones/silence.wav,2,104,space,0.3312,B_1,stimuli/Baron6dB/070000.wav,stimuli/Ringo/010202.wav,stimuli/Arrow/040202.wav,NA,0,silence,silence,B_1,1,0,0,0,1
11,stimuli/tones/PercTri-27dB.wav,0.75,105,space,1.4832,W_1,stimuli/Baron6dB/070100.wav,stimuli/Eagle/060001.wav,stimuli/Tiger/050003.wav,NA,1,-27dB,PercTri,R_1,0,1,0,0,0
11,stimuli/tones/silence.wav,2,106,noResp,NA,B_4,stimuli/Baron6dB/070003.wav,stimuli/Ringo/010100.wav,stimuli/Ringo/010003.wav,NA,1,silence,silence,B_4,1,0,0,1,0
11,stimuli/tones/silence.wav,2,107,noResp,NA,G_1,stimuli/Baron6dB/070300.wav,stimuli/Charlie/000303.wav,stimuli/Hopper/030201.wav,NA,1,silence,silence,G_1,1,0,0,1,0
11,stimuli/tones/PercTri-24dB.wav,2,108,space,3.036,W_4,stimuli/Baron6dB/070203.wav,stimuli/Laker/020301.wav,stimuli/Eagle/060202.wav,NA,1,-24dB,PercTri,W_4,1,1,0,0,0
11,stimuli/tones/silence.wav,1.25,109,noResp,NA,R_2,stimuli/Baron6dB/070101.wav,stimuli/Eagle/060202.wav,stimuli/Laker/020102.wav,NA,1,silence,silence,R_2,1,0,0,1,0
11,stimuli/tones/PercTri-27dB.wav,1.25,110,noResp,NA,G_2,stimuli/Baron6dB/070301.wav,stimuli/Hopper/030000.wav,stimuli/Tiger/050201.wav,NA,0,-27dB,PercTri,G_2,1,0,1,0,0
11,stimuli/tones/silence.wav,1.25,111,noResp,NA,G_4,stimuli/Baron6dB/070303.wav,stimuli/Charlie/000202.wav,stimuli/Hopper/030002.wav,NA,1,silence,silence,G_4,1,0,0,1,0
11,stimuli/tones/silence.wav,0.75,112,noResp,NA,R_2,stimuli/Baron6dB/070101.wav,stimuli/Tiger/050202.wav,stimuli/Ringo/010002.wav,NA,1,silence,silence,R_2,1,0,0,1,0
11,stimuli/tones/PercTri-33dB.wav,2,113,noResp,NA,W_4,stimuli/Baron6dB/070203.wav,stimuli/Eagle/060001.wav,stimuli/Ringo/010302.wav,NA,0,-33dB,PercTri,W_4,1,0,1,0,0
11,stimuli/tones/silence.wav,1.25,114,noResp,NA,G_2,stimuli/Baron6dB/070301.wav,stimuli/Ringo/010200.wav,stimuli/Ringo/010101.wav,NA,1,silence,silence,G_2,1,0,0,1,0
11,stimuli/tones/silence.wav,1.25,115,noResp,NA,W_3,stimuli/Baron6dB/070303.wav,stimuli/Eagle/060102.wav,stimuli/Eagle/060202.wav,NA,1,silence,silence,G_4,0,0,0,1,0
11,stimuli/tones/PercTri-18dB.wav,2,116,space,3.754,W_2,stimuli/Baron6dB/070201.wav,stimuli/Tiger/050102.wav,stimuli/Tiger/050001.wav,NA,1,-18dB,PercTri,W_2,1,1,0,0,0
11,stimuli/tones/silence.wav,1.25,117,noResp,NA,B_1,stimuli/Baron6dB/070000.wav,stimuli/Arrow/040000.wav,stimuli/Arrow/040203.wav,NA,1,silence,silence,B_1,1,0,0,1,0
11,stimuli/tones/silence.wav,2,118,noResp,NA,R_1,stimuli/Baron6dB/070100.wav,stimuli/Ringo/010203.wav,stimuli/Eagle/060001.wav,NA,1,silence,silence,R_1,1,0,0,1,0
11,stimuli/tones/silence.wav,1.25,119,noResp,NA,R_4,stimuli/Baron6dB/070103.wav,stimuli/Laker/020101.wav,stimuli/Tiger/050100.wav,NA,1,silence,silence,R_4,1,0,0,1,0
11,stimuli/tones/FlatIEC-18dB.wav,1.25,120,space,1.998,B_2,stimuli/Baron6dB/070003.wav,stimuli/Charlie/000201.wav,stimuli/Hopper/030001.wav,NA,1,-18dB,Flat,B_4,0,1,0,0,0
11,stimuli/tones/silence.wav,0.75,121,noResp,NA,W_1,stimuli/Baron6dB/070200.wav,stimuli/Charlie/000002.wav,stimuli/Hopper/030202.wav,NA,1,silence,silence,W_1,1,0,0,1,0
11,stimuli/tones/silence.wav,0.75,122,noResp,NA,W_3,stimuli/Baron6dB/070202.wav,stimuli/Eagle/060100.wav,stimuli/Charlie/000100.wav,NA,1,silence,silence,W_3,1,0,0,1,0
11,stimuli/tones/PercTri-18dB.wav,2,123,space,2.4466,B_2,stimuli/Baron6dB/070001.wav,stimuli/Charlie/000003.wav,stimuli/Charlie/000103.wav,NA,1,-18dB,PercTri,B_2,1,1,0,0,0
11,stimuli/tones/silence.wav,1.25,124,noResp,NA,G_1,stimuli/Baron6dB/070300.wav,stimuli/Arrow/040300.wav,stimuli/Eagle/060300.wav,NA,1,silence,silence,G_1,1,0,0,1,0
11,stimuli/tones/PercTri-24dB.wav,2,125,space,2.581,R_3,stimuli/Baron6dB/070102.wav,stimuli/Laker/020301.wav,stimuli/Tiger/050302.wav,NA,1,-24dB,PercTri,R_3,1,1,0,0,0
11,stimuli/tones/FlatIEC-21dB.wav,2,126,space,2.8569,B_3,stimuli/Baron6dB/070002.wav,stimuli/Laker/020103.wav,stimuli/Laker/020002.wav,NA,1,-21dB,Flat,B_3,1,1,0,0,0
11,stimuli/tones/silence.wav,0.75,127,noResp,NA,G_3,stimuli/Baron6dB/070302.wav,stimuli/Charlie/000000.wav,stimuli/Arrow/040000.wav,NA,1,silence,silence,G_3,1,0,0,1,0
11,stimuli/tones/silence.wav,1.25,128,noResp,NA,B_4,stimuli/Baron6dB/070003.wav,stimuli/Eagle/060202.wav,stimuli/Laker/020301.wav,NA,1,silence,silence,B_4,1,0,0,1,0
11,stimuli/tones/PercTri-33dB.wav,0.75,129,noResp,NA,R_2,stimuli/Baron6dB/070101.wav,stimuli/Tiger/050200.wav,stimuli/Charlie/000003.wav,NA,0,-33dB,PercTri,R_2,1,0,1,0,0
11,stimuli/tones/PercTri-24dB.wav,0.75,130,space,1.2379,G_1,stimuli/Baron6dB/070300.wav,stimuli/Laker/020200.wav,stimuli/Ringo/010303.wav,NA,1,-24dB,PercTri,G_1,1,1,0,0,0
11,stimuli/tones/silence.wav,2,131,noResp,NA,G_3,stimuli/Baron6dB/070302.wav,stimuli/Eagle/060002.wav,stimuli/Tiger/050000.wav,NA,1,silence,silence,G_3,1,0,0,1,0
11,stimuli/tones/FlatIEC-27dB.wav,2,132,space,2.7795,W_2,stimuli/Baron6dB/070201.wav,stimuli/Ringo/010003.wav,stimuli/Hopper/030200.wav,NA,1,-27dB,Flat,W_2,1,1,0,0,0
11,stimuli/tones/silence.wav,0.75,133,noResp,NA,R_4,stimuli/Baron6dB/070103.wav,stimuli/Hopper/030303.wav,stimuli/Arrow/040302.wav,NA,1,silence,silence,R_4,1,0,0,1,0
11,stimuli/tones/FlatIEC-21dB.wav,2,134,space,2.7042,W_4,stimuli/Baron6dB/070203.wav,stimuli/Hopper/030302.wav,stimuli/Charlie/000203.wav,NA,1,-21dB,Flat,W_4,1,1,0,0,0
11,stimuli/tones/PercTri-30dB.wav,1.25,135,noResp,NA,B_2,stimuli/Baron6dB/070001.wav,stimuli/Charlie/000301.wav,stimuli/Charlie/000202.wav,NA,0,-30dB,PercTri,B_2,1,0,1,0,0
11,stimuli/tones/PercTri-21dB.wav,2,136,space,2.5171,G_2,stimuli/Baron6dB/070301.wav,stimuli/Laker/020300.wav,stimuli/Eagle/060203.wav,NA,1,-21dB,PercTri,G_2,1,1,0,0,0
11,stimuli/tones/PercTri-33dB.wav,1.25,137,noResp,NA,B_1,stimuli/Baron6dB/070000.wav,stimuli/Tiger/050300.wav,stimuli/Eagle/060000.wav,NA,0,-33dB,PercTri,B_1,1,0,1,0,0
11,stimuli/tones/FlatIEC-24dB.wav,1.25,138,space,2.4756,W_1,stimuli/Baron6dB/070200.wav,stimuli/Hopper/030103.wav,stimuli/Tiger/050300.wav,NA,1,-24dB,Flat,W_1,1,1,0,0,0
11,stimuli/tones/silence.wav,1.25,139,noResp,NA,G_4,stimuli/Baron6dB/070303.wav,stimuli/Arrow/040303.wav,stimuli/Eagle/060301.wav,NA,1,silence,silence,G_4,1,0,0,1,0
11,stimuli/tones/silence.wav,2,140,noResp,NA,R_3,stimuli/Baron6dB/070102.wav,stimuli/Charlie/000300.wav,stimuli/Ringo/010001.wav,NA,1,silence,silence,R_3,1,0,0,1,0
11,stimuli/tones/PercTri-24dB.wav,1.25,141,space,2.3776,W_1,stimuli/Baron6dB/070100.wav,stimuli/Hopper/030101.wav,stimuli/Ringo/010203.wav,NA,1,-24dB,PercTri,R_1,0,1,0,0,0
11,stimuli/tones/silence.wav,0.75,142,noResp,NA,W_3,stimuli/Baron6dB/070202.wav,stimuli/Hopper/030002.wav,stimuli/Arrow/040001.wav,NA,1,silence,silence,W_3,1,0,0,1,0
11,stimuli/tones/FlatIEC-24dB.wav,0.75,143,space,1.3934,B_3,stimuli/Baron6dB/070002.wav,stimuli/Tiger/050301.wav,stimuli/Charlie/000200.wav,NA,1,-24dB,Flat,B_3,1,1,0,0,0
11,stimuli/tones/silence.wav,2,144,noResp,NA,B_4,stimuli/Baron6dB/070003.wav,stimuli/Arrow/040200.wav,stimuli/Arrow/040202.wav,NA,1,silence,silence,B_4,1,0,0,1,0
11,stimuli/tones/FlatIEC-30dB.wav,1.25,145,space,2.5647,G_3,stimuli/Baron6dB/070302.wav,stimuli/Charlie/000100.wav,stimuli/Arrow/040002.wav,NA,1,-30dB,Flat,G_3,1,1,0,0,0
11,stimuli/tones/PercTri-30dB.wav,1.25,146,noResp,NA,W_2,stimuli/Baron6dB/070201.wav,stimuli/Hopper/030301.wav,stimuli/Ringo/010202.wav,NA,0,-30dB,PercTri,W_2,1,0,1,0,0
11,stimuli/tones/FlatIEC-18dB.wav,2,147,space,2.7024,B_2,stimuli/Baron6dB/070001.wav,stimuli/Eagle/060201.wav,stimuli/Eagle/060302.wav,NA,1,-18dB,Flat,B_2,1,1,0,0,0
11,stimuli/tones/silence.wav,1.25,148,noResp,NA,G_1,stimuli/Baron6dB/070300.wav,stimuli/Arrow/040100.wav,stimuli/Laker/020003.wav,NA,1,silence,silence,G_1,1,0,0,1,0
11,stimuli/tones/silence.wav,0.75,149,noResp,NA,G_4,stimuli/Baron6dB/070303.wav,stimuli/Laker/020102.wav,stimuli/Arrow/040100.wav,NA,1,silence,silence,G_4,1,0,0,1,0
11,stimuli/tones/silence.wav,0.75,150,noResp,NA,G_2,stimuli/Baron6dB/070301.wav,stimuli/Tiger/050003.wav,stimuli/Eagle/060101.wav,NA,1,silence,silence,G_2,1,0,0,1,0
11,stimuli/tones/PercTri-21dB.wav,0.75,151,space,1.3071,R_3,stimuli/Baron6dB/070102.wav,stimuli/Ringo/010202.wav,stimuli/Laker/020000.wav,NA,1,-21dB,PercTri,R_3,1,1,0,0,0
11,stimuli/tones/silence.wav,0.75,152,noResp,NA,R_4,stimuli/Baron6dB/070103.wav,stimuli/Eagle/060103.wav,stimuli/Eagle/060303.wav,NA,1,silence,silence,R_4,1,0,0,1,0
11,stimuli/tones/silence.wav,2,153,noResp,NA,B_3,stimuli/Baron6dB/070002.wav,stimuli/Hopper/030300.wav,stimuli/Arrow/040303.wav,NA,1,silence,silence,B_3,1,0,0,1,0
11,stimuli/tones/silence.wav,2,154,noResp,NA,W_3,stimuli/Baron6dB/070202.wav,stimuli/Charlie/000302.wav,stimuli/Ringo/010003.wav,NA,1,silence,silence,W_3,1,0,0,1,0
11,stimuli/tones/FlatIEC-18dB.wav,1.25,155,noResp,NA,W_2,stimuli/Baron6dB/070101.wav,stimuli/Eagle/060003.wav,stimuli/Ringo/010103.wav,NA,0,-18dB,Flat,R_2,0,0,1,0,0
11,stimuli/tones/PercTri-27dB.wav,1.25,156,space,1.9973,W_4,stimuli/Baron6dB/070203.wav,stimuli/Laker/020201.wav,stimuli/Eagle/060200.wav,NA,1,-27dB,PercTri,W_4,1,1,0,0,0
11,stimuli/tones/FlatIEC-18dB.wav,0.75,157,space,1.7136,W_1,stimuli/Baron6dB/070200.wav,stimuli/Tiger/050103.wav,stimuli/Arrow/040300.wav,NA,1,-18dB,Flat,W_1,1,1,0,0,0
11,stimuli/tones/PercTri-18dB.wav,1.25,158,space,1.9042,B_1,stimuli/Baron6dB/070000.wav,stimuli/Ringo/010001.wav,stimuli/Hopper/030103.wav,NA,1,-18dB,PercTri,B_1,1,1,0,0,0
11,stimuli/tones/silence.wav,2,159,noResp,NA,R_1,stimuli/Baron6dB/070100.wav,stimuli/Eagle/060101.wav,stimuli/Tiger/050301.wav,NA,1,silence,silence,R_1,1,0,0,1,0
11,stimuli/tones/FlatIEC-21dB.wav,1.25,160,space,2.2078,W_2,stimuli/Baron6dB/070201.wav,stimuli/Charlie/000101.wav,stimuli/Tiger/050102.wav,NA,1,-21dB,Flat,W_2,1,1,0,0,0
11,stimuli/tones/silence.wav,2,161,noResp,NA,R_4,stimuli/Baron6dB/070103.wav,stimuli/Tiger/050203.wav,stimuli/Laker/020302.wav,NA,1,silence,silence,R_4,1,0,0,1,0
11,stimuli/tones/silence.wav,0.75,162,noResp,NA,G_4,stimuli/Baron6dB/070303.wav,stimuli/Arrow/040101.wav,stimuli/Hopper/030102.wav,NA,1,silence,silence,G_4,1,0,0,1,0
11,stimuli/tones/PercTri-24dB.wav,1.25,163,space,1.8226,B_2,stimuli/Baron6dB/070001.wav,stimuli/Ringo/010000.wav,stimuli/Laker/020102.wav,NA,1,-24dB,PercTri,B_2,1,1,0,0,0
11,stimuli/tones/FlatIEC-21dB.wav,0.75,164,noResp,NA,R_1,stimuli/Baron6dB/070100.wav,stimuli/Ringo/010101.wav,stimuli/Laker/020303.wav,NA,0,-21dB,Flat,R_1,1,0,1,0,0
11,stimuli/tones/silence.wav,0.75,165,noResp,NA,W_1,stimuli/Baron6dB/070200.wav,stimuli/Hopper/030100.wav,stimuli/Arrow/040200.wav,NA,1,silence,silence,W_1,1,0,0,1,0
11,stimuli/tones/silence.wav,0.75,166,noResp,NA,B_4,stimuli/Baron6dB/070003.wav,stimuli/Laker/020203.wav,stimuli/Hopper/030002.wav,NA,1,silence,silence,B_4,1,0,0,1,0
11,stimuli/tones/silence.wav,1.25,167,noResp,NA,G_2,stimuli/Baron6dB/070301.wav,stimuli/Ringo/010103.wav,stimuli/Charlie/000000.wav,NA,1,silence,silence,G_2,1,0,0,1,0
11,stimuli/tones/silence.wav,0.75,168,noResp,NA,B_3,stimuli/Baron6dB/070002.wav,stimuli/Tiger/050002.wav,stimuli/Ringo/010200.wav,NA,1,silence,silence,B_3,1,0,0,1,0
11,stimuli/tones/FlatIEC-24dB.wav,0.75,169,space,1.425,B_1,stimuli/Baron6dB/070000.wav,stimuli/Charlie/000202.wav,stimuli/Laker/020202.wav,NA,1,-24dB,Flat,B_1,1,1,0,0,0
11,stimuli/tones/silence.wav,0.75,170,noResp,NA,G_3,stimuli/Baron6dB/070302.wav,stimuli/Charlie/000203.wav,stimuli/Ringo/010300.wav,NA,1,silence,silence,G_3,1,0,0,1,0
11,stimuli/tones/silence.wav,1.25,171,noResp,NA,W_3,stimuli/Baron6dB/070202.wav,stimuli/Eagle/060300.wav,stimuli/Charlie/000102.wav,NA,1,silence,silence,W_3,1,0,0,1,0
11,stimuli/tones/PercTri-21dB.wav,0.75,172,space,1.3901,R_3,stimuli/Baron6dB/070102.wav,stimuli/Arrow/040102.wav,stimuli/Hopper/030203.wav,NA,1,-21dB,PercTri,R_3,1,1,0,0,0
11,stimuli/tones/FlatIEC-27dB.wav,0.75,173,noResp,NA,R_2,stimuli/Baron6dB/070101.wav,stimuli/Charlie/000103.wav,stimuli/Tiger/050200.wav,NA,0,-27dB,Flat,R_2,1,0,1,0,0
11,stimuli/tones/PercTri-30dB.wav,2,174,noResp,NA,G_1,stimuli/Baron6dB/070300.wav,stimuli/Charlie/000001.wav,stimuli/Ringo/010100.wav,NA,0,-30dB,PercTri,G_1,1,0,1,0,0
11,stimuli/tones/silence.wav,2,175,space,0.1833,W_4,stimuli/Baron6dB/070203.wav,stimuli/Tiger/050100.wav,stimuli/Hopper/030201.wav,NA,0,silence,silence,W_4,1,0,0,0,1
11,stimuli/tones/silence.wav,1.25,176,noResp,NA,B_4,stimuli/Baron6dB/070003.wav,stimuli/Ringo/010302.wav,stimuli/Hopper/030000.wav,NA,1,silence,silence,B_4,1,0,0,1,0
11,stimuli/tones/PercTri-24dB.wav,1.25,177,space,1.7913,G_1,stimuli/Baron6dB/070300.wav,stimuli/Hopper/030102.wav,stimuli/Laker/020201.wav,NA,1,-24dB,PercTri,G_1,1,1,0,0,0
11,stimuli/tones/FlatIEC-33dB.wav,2,178,noResp,NA,W_3,stimuli/Baron6dB/070202.wav,stimuli/Ringo/010201.wav,stimuli/Arrow/040102.wav,NA,0,-33dB,Flat,W_3,1,0,1,0,0
11,stimuli/tones/silence.wav,0.75,179,space,0.1159,R_1,stimuli/Baron6dB/070100.wav,stimuli/Hopper/030203.wav,stimuli/Arrow/040201.wav,NA,0,silence,silence,R_1,1,0,0,0,1
11,stimuli/tones/silence.wav,2,180,noResp,NA,B_3,stimuli/Baron6dB/070002.wav,stimuli/Eagle/060301.wav,stimuli/Charlie/000302.wav,NA,1,silence,silence,B_3,1,0,0,1,0
11,stimuli/tones/silence.wav,2,181,noResp,NA,R_2,stimuli/Baron6dB/070101.wav,stimuli/Arrow/040301.wav,stimuli/Laker/020300.wav,NA,1,silence,silence,R_2,1,0,0,1,0
11,stimuli/tones/silence.wav,1.25,182,noResp,NA,R_3,stimuli/Baron6dB/070102.wav,stimuli/Laker/020000.wav,stimuli/Charlie/000101.wav,NA,1,silence,silence,R_3,1,0,0,1,0
11,stimuli/tones/FlatIEC-30dB.wav,2,183,noResp,NA,G_4,stimuli/Baron6dB/070303.wav,stimuli/Laker/020202.wav,stimuli/Hopper/030302.wav,NA,0,-30dB,Flat,G_4,1,0,1,0,0
11,stimuli/tones/silence.wav,0.75,184,noResp,NA,R_4,stimuli/Baron6dB/070103.wav,stimuli/Tiger/050001.wav,stimuli/Eagle/060002.wav,NA,1,silence,silence,R_4,1,0,0,1,0
11,stimuli/tones/FlatIEC-18dB.wav,2,185,space,2.652,B_2,stimuli/Baron6dB/070001.wav,stimuli/Arrow/040001.wav,stimuli/Laker/020001.wav,NA,1,-18dB,Flat,B_2,1,1,0,0,0
11,stimuli/tones/FlatIEC-30dB.wav,2,186,noResp,NA,B_1,stimuli/Baron6dB/070000.wav,stimuli/Laker/020302.wav,stimuli/Charlie/000201.wav,NA,0,-30dB,Flat,B_1,1,0,1,0,0
11,stimuli/tones/FlatIEC-33dB.wav,0.75,187,noResp,NA,W_4,stimuli/Baron6dB/070203.wav,stimuli/Ringo/010002.wav,stimuli/Laker/020103.wav,NA,0,-33dB,Flat,W_4,1,0,1,0,0
11,stimuli/tones/silence.wav,1.25,188,noResp,NA,W_1,stimuli/Baron6dB/070200.wav,stimuli/Tiger/050303.wav,stimuli/Tiger/050101.wav,NA,1,silence,silence,W_1,1,0,0,1,0
11,stimuli/tones/PercTri-27dB.wav,2,189,noResp,NA,G_3,stimuli/Baron6dB/070302.wav,stimuli/Arrow/040302.wav,stimuli/Ringo/010000.wav,NA,0,-27dB,PercTri,G_3,1,0,1,0,0
11,stimuli/tones/FlatIEC-24dB.wav,2,190,space,2.9512,G_2,stimuli/Baron6dB/070301.wav,stimuli/Hopper/030000.wav,stimuli/Laker/020203.wav,NA,1,-24dB,Flat,G_2,1,1,0,0,0
11,stimuli/tones/PercTri-27dB.wav,0.75,191,noResp,NA,W_2,stimuli/Baron6dB/070201.wav,stimuli/Ringo/010303.wav,stimuli/Hopper/030301.wav,NA,0,-27dB,PercTri,W_2,1,0,1,0,0
11,stimuli/tones/silence.wav,2,192,noResp,NA,R_4,stimuli/Baron6dB/070103.wav,stimuli/Arrow/040002.wav,stimuli/Tiger/050201.wav,NA,1,silence,silence,R_4,1,0,0,1,0
11,stimuli/tones/silence.wav,0.75,193,noResp,NA,W_4,stimuli/Baron6dB/070203.wav,stimuli/Eagle/060302.wav,stimuli/Tiger/050002.wav,NA,1,silence,silence,W_4,1,0,0,1,0
11,stimuli/tones/FlatIEC-33dB.wav,1.25,194,noResp,NA,G_4,stimuli/Baron6dB/070303.wav,stimuli/Charlie/000303.wav,stimuli/Tiger/050103.wav,NA,0,-33dB,Flat,G_4,1,0,1,0,0
11,stimuli/tones/FlatIEC-24dB.wav,1.25,195,space,2.3747,B_2,stimuli/Baron6dB/070001.wav,stimuli/Eagle/060203.wav,stimuli/Tiger/050303.wav,NA,1,-24dB,Flat,B_2,1,1,0,0,0
11,stimuli/tones/silence.wav,1.25,196,noResp,NA,B_4,stimuli/Baron6dB/070003.wav,stimuli/Ringo/010300.wav,stimuli/Charlie/000002.wav,NA,1,silence,silence,B_4,1,0,0,1,0
11,stimuli/tones/PercTri-30dB.wav,0.75,197,space,2.0436,W_3,stimuli/Baron6dB/070202.wav,stimuli/Eagle/060200.wav,stimuli/Tiger/050202.wav,NA,1,-30dB,PercTri,W_3,1,1,0,0,0
11,stimuli/tones/FlatIEC-27dB.wav,1.25,198,noResp,NA,W_2,stimuli/Baron6dB/070201.wav,stimuli/Laker/020003.wav,stimuli/Ringo/010201.wav,NA,0,-27dB,Flat,W_2,1,0,1,0,0
11,stimuli/tones/silence.wav,0.75,199,noResp,NA,G_1,stimuli/Baron6dB/070300.wav,stimuli/Hopper/030001.wav,stimuli/Laker/020100.wav,NA,1,silence,silence,G_1,1,0,0,1,0
11,stimuli/tones/FlatIEC-33dB.wav,2,200,noResp,NA,B_3,stimuli/Baron6dB/070102.wav,stimuli/Arrow/040202.wav,stimuli/Arrow/040003.wav,NA,0,-33dB,Flat,R_3,0,0,1,0,0
11,stimuli/tones/silence.wav,2,201,noResp,NA,B_1,stimuli/Baron6dB/070000.wav,stimuli/Tiger/050101.wav,stimuli/Hopper/030303.wav,NA,1,silence,silence,B_1,1,0,0,1,0
11,stimuli/tones/PercTri-27dB.wav,2,202,noResp,NA,R_2,stimuli/Baron6dB/070101.wav,stimuli/Hopper/030200.wav,stimuli/Charlie/000301.wav,NA,0,-27dB,PercTri,R_2,1,0,1,0,0
11,stimuli/tones/silence.wav,2,203,space,0.1056,W_1,stimuli/Baron6dB/070200.wav,stimuli/Tiger/050201.wav,stimuli/Arrow/040301.wav,NA,0,silence,silence,W_1,1,0,0,0,1
11,stimuli/tones/silence.wav,2,204,noResp,NA,G_3,stimuli/Baron6dB/070302.wav,stimuli/Charlie/000200.wav,stimuli/Eagle/060003.wav,NA,1,silence,silence,G_3,1,0,0,1,0
11,stimuli/tones/silence.wav,1.25,205,noResp,NA,G_2,stimuli/Baron6dB/070301.wav,stimuli/Laker/020002.wav,stimuli/Hopper/030300.wav,NA,1,silence,silence,G_2,1,0,0,1,0
11,stimuli/tones/silence.wav,2,206,noResp,NA,R_1,stimuli/Baron6dB/070100.wav,stimuli/Laker/020100.wav,stimuli/Arrow/040101.wav,NA,1,silence,silence,R_1,1,0,0,1,0
11,stimuli/tones/silence.wav,0.75,207,noResp,NA,B_3,stimuli/Baron6dB/070002.wav,stimuli/Hopper/030003.wav,stimuli/Ringo/010301.wav,NA,1,silence,silence,B_3,1,0,0,1,0
11,stimuli/tones/silence.wav,0.75,208,noResp,NA,B_1,stimuli/Baron6dB/070000.wav,stimuli/Arrow/040203.wav,stimuli/Eagle/060201.wav,NA,1,silence,silence,B_1,1,0,0,1,0
11,stimuli/tones/silence.wav,2,209,noResp,NA,R_3,stimuli/Baron6dB/070102.wav,stimuli/Laker/020303.wav,stimuli/Arrow/040103.wav,NA,1,silence,silence,R_3,1,0,0,1,0
11,stimuli/tones/silence.wav,0.75,210,noResp,NA,W_3,stimuli/Baron6dB/070202.wav,stimuli/Tiger/050302.wav,stimuli/Charlie/000300.wav,NA,1,silence,silence,W_3,1,0,0,1,0
11,stimuli/tones/silence.wav,2,211,noResp,NA,G_2,stimuli/Baron6dB/070301.wav,stimuli/Arrow/040201.wav,stimuli/Laker/020101.wav,NA,1,silence,silence,G_2,1,0,0,1,0
11,stimuli/tones/silence.wav,0.75,212,noResp,NA,B_2,stimuli/Baron6dB/070001.wav,stimuli/Ringo/010301.wav,stimuli/Tiger/050203.wav,NA,1,silence,silence,B_2,1,0,0,1,0
11,stimuli/tones/silence.wav,2,213,noResp,NA,R_4,stimuli/Baron6dB/070103.wav,stimuli/Arrow/040003.wav,stimuli/Eagle/060103.wav,NA,1,silence,silence,R_4,1,0,0,1,0
11,stimuli/tones/silence.wav,0.75,214,space,2.3785,B_4,stimuli/Baron6dB/070003.wav,stimuli/Ringo/010102.wav,stimuli/Ringo/010102.wav,NA,0,silence,silence,B_4,1,0,0,0,1
11,stimuli/tones/FlatIEC-18dB.wav,0.75,215,space,2.2657,R_2,stimuli/Baron6dB/070101.wav,stimuli/Laker/020001.wav,stimuli/Tiger/050003.wav,NA,1,-18dB,Flat,R_2,1,1,0,0,0
12,stimuli/tones/PercTri-18dB.wav,2,0,noResp,NA,B_2,stimuli/Baron6dB/070001.wav,stimuli/Arrow/040303.wav,stimuli/Arrow/040302.wav,NA,0,-18dB,PercTri,B_2,1,0,1,0,0
12,stimuli/tones/PercTri-24dB.wav,1.25,1,noResp,NA,W_3,stimuli/Baron6dB/070202.wav,stimuli/Hopper/030202.wav,stimuli/Charlie/000201.wav,NA,0,-24dB,PercTri,W_3,1,0,1,0,0
12,stimuli/tones/PercTri-24dB.wav,1.25,2,noResp,NA,G_4,stimuli/Baron6dB/070303.wav,stimuli/Hopper/030100.wav,stimuli/Laker/020201.wav,NA,0,-24dB,PercTri,G_4,1,0,1,0,0
12,stimuli/tones/silence.wav,1.25,3,noResp,NA,G_1,stimuli/Baron6dB/070300.wav,stimuli/Charlie/000002.wav,stimuli/Tiger/050103.wav,NA,1,silence,silence,G_1,1,0,0,1,0
12,stimuli/tones/FlatIEC-27dB.wav,1.25,4,noResp,NA,R_1,stimuli/Baron6dB/070100.wav,stimuli/Eagle/060200.wav,stimuli/Hopper/030000.wav,NA,0,-27dB,Flat,R_1,1,0,1,0,0
12,stimuli/tones/PercTri-33dB.wav,0.75,5,noResp,NA,G_2,stimuli/Baron6dB/070301.wav,stimuli/Ringo/010200.wav,stimuli/Hopper/030203.wav,NA,0,-33dB,PercTri,G_2,1,0,1,0,0
12,stimuli/tones/FlatIEC-18dB.wav,2,6,noResp,NA,W_4,stimuli/Baron6dB/070203.wav,stimuli/Laker/020101.wav,stimuli/Arrow/040101.wav,NA,0,-18dB,Flat,W_4,1,0,1,0,0
12,stimuli/tones/PercTri-33dB.wav,1.25,7,noResp,NA,R_2,stimuli/Baron6dB/070101.wav,stimuli/Arrow/040103.wav,stimuli/Laker/020100.wav,NA,0,-33dB,PercTri,R_2,1,0,1,0,0
12,stimuli/tones/FlatIEC-21dB.wav,1.25,8,noResp,NA,R_3,stimuli/Baron6dB/070102.wav,stimuli/Charlie/000000.wav,stimuli/Charlie/000202.wav,NA,0,-21dB,Flat,R_3,1,0,1,0,0
12,stimuli/tones/PercTri-24dB.wav,1.25,9,noResp,NA,R_4,stimuli/Baron6dB/070103.wav,stimuli/Ringo/010003.wav,stimuli/Ringo/010200.wav,NA,0,-24dB,PercTri,R_4,1,0,1,0,0
12,stimuli/tones/FlatIEC-30dB.wav,0.75,10,noResp,NA,W_2,stimuli/Baron6dB/070201.wav,stimuli/Charlie/000001.wav,stimuli/Eagle/060201.wav,NA,0,-30dB,Flat,W_2,1,0,1,0,0
12,stimuli/tones/silence.wav,2,11,noResp,NA,B_3,stimuli/Baron6dB/070002.wav,stimuli/Charlie/000100.wav,stimuli/Tiger/050303.wav,NA,1,silence,silence,B_3,1,0,0,1,0
12,stimuli/tones/silence.wav,2,12,noResp,NA,B_4,stimuli/Baron6dB/070003.wav,stimuli/Tiger/050000.wav,stimuli/Laker/020101.wav,NA,1,silence,silence,B_4,1,0,0,1,0
12,stimuli/tones/PercTri-27dB.wav,0.75,13,noResp,NA,G_3,stimuli/Baron6dB/070302.wav,stimuli/Eagle/060201.wav,stimuli/Eagle/060000.wav,NA,0,-27dB,PercTri,G_3,1,0,1,0,0
12,stimuli/tones/silence.wav,2,14,noResp,NA,B_1,stimuli/Baron6dB/070000.wav,stimuli/Hopper/030103.wav,stimuli/Laker/020000.wav,NA,1,silence,silence,B_1,1,0,0,1,0
12,stimuli/tones/PercTri-18dB.wav,1.25,15,noResp,NA,W_1,stimuli/Baron6dB/070200.wav,stimuli/Ringo/010301.wav,stimuli/Tiger/050100.wav,NA,0,-18dB,PercTri,W_1,1,0,1,0,0
12,stimuli/tones/silence.wav,1.25,16,noResp,NA,R_4,stimuli/Baron6dB/070103.wav,stimuli/Hopper/030003.wav,stimuli/Hopper/030101.wav,NA,1,silence,silence,R_4,1,0,0,1,0
12,stimuli/tones/PercTri-30dB.wav,0.75,17,noResp,NA,W_3,stimuli/Baron6dB/070202.wav,stimuli/Hopper/030001.wav,stimuli/Tiger/050003.wav,NA,0,-30dB,PercTri,W_3,1,0,1,0,0
12,stimuli/tones/PercTri-24dB.wav,0.75,18,noResp,NA,B_2,stimuli/Baron6dB/070301.wav,stimuli/Laker/020103.wav,stimuli/Tiger/050101.wav,NA,0,-24dB,PercTri,G_2,0,0,1,0,0
12,stimuli/tones/PercTri-24dB.wav,2,19,noResp,NA,R_2,stimuli/Baron6dB/070101.wav,stimuli/Ringo/010000.wav,stimuli/Hopper/030302.wav,NA,0,-24dB,PercTri,R_2,1,0,1,0,0
12,stimuli/tones/PercTri-30dB.wav,2,20,noResp,NA,R_3,stimuli/Baron6dB/070102.wav,stimuli/Ringo/010302.wav,stimuli/Charlie/000003.wav,NA,0,-30dB,PercTri,R_3,1,0,1,0,0
12,stimuli/tones/FlatIEC-33dB.wav,2,21,noResp,NA,B_1,stimuli/Baron6dB/070000.wav,stimuli/Tiger/050200.wav,stimuli/Tiger/050002.wav,NA,0,-33dB,Flat,B_1,1,0,1,0,0
12,stimuli/tones/silence.wav,0.75,22,noResp,NA,G_1,stimuli/Baron6dB/070300.wav,stimuli/Eagle/060101.wav,stimuli/Charlie/000203.wav,NA,1,silence,silence,G_1,1,0,0,1,0
12,stimuli/tones/silence.wav,1.25,23,noResp,NA,R_1,stimuli/Baron6dB/070100.wav,stimuli/Charlie/000103.wav,stimuli/Arrow/040300.wav,NA,1,silence,silence,R_1,1,0,0,1,0
12,stimuli/tones/silence.wav,0.75,24,noResp,NA,G_3,stimuli/Baron6dB/070302.wav,stimuli/Tiger/050002.wav,stimuli/Laker/020103.wav,NA,1,silence,silence,G_3,1,0,0,1,0
12,stimuli/tones/FlatIEC-33dB.wav,0.75,25,noResp,NA,W_4,stimuli/Baron6dB/070203.wav,stimuli/Hopper/030303.wav,stimuli/Laker/020300.wav,NA,0,-33dB,Flat,W_4,1,0,1,0,0
12,stimuli/tones/silence.wav,2,26,noResp,NA,G_4,stimuli/Baron6dB/070303.wav,stimuli/Hopper/030101.wav,stimuli/Eagle/060100.wav,NA,1,silence,silence,G_4,1,0,0,1,0
12,stimuli/tones/silence.wav,2,27,noResp,NA,W_2,stimuli/Baron6dB/070201.wav,stimuli/Ringo/010201.wav,stimuli/Eagle/060001.wav,NA,1,silence,silence,W_2,1,0,0,1,0
12,stimuli/tones/silence.wav,2,28,noResp,NA,B_3,stimuli/Baron6dB/070002.wav,stimuli/Arrow/040000.wav,stimuli/Ringo/010203.wav,NA,1,silence,silence,B_3,1,0,0,1,0
12,stimuli/tones/PercTri-30dB.wav,0.75,29,noResp,NA,W_1,stimuli/Baron6dB/070200.wav,stimuli/Laker/020300.wav,stimuli/Laker/020303.wav,NA,0,-30dB,PercTri,W_1,1,0,1,0,0
12,stimuli/tones/PercTri-24dB.wav,2,30,noResp,NA,B_4,stimuli/Baron6dB/070003.wav,stimuli/Laker/020200.wav,stimuli/Laker/020002.wav,NA,0,-24dB,PercTri,B_4,1,0,1,0,0
12,stimuli/tones/PercTri-33dB.wav,0.75,31,noResp,NA,B_2,stimuli/Baron6dB/070001.wav,stimuli/Laker/020202.wav,stimuli/Ringo/010201.wav,NA,0,-33dB,PercTri,B_2,1,0,1,0,0
12,stimuli/tones/silence.wav,2,32,noResp,NA,B_3,stimuli/Baron6dB/070002.wav,stimuli/Ringo/010101.wav,stimuli/Hopper/030300.wav,NA,1,silence,silence,B_3,1,0,0,1,0
12,stimuli/tones/silence.wav,2,33,noResp,NA,G_1,stimuli/Baron6dB/070300.wav,stimuli/Tiger/050202.wav,stimuli/Charlie/000300.wav,NA,1,silence,silence,G_1,1,0,0,1,0
12,stimuli/tones/FlatIEC-21dB.wav,0.75,34,noResp,NA,B_2,stimuli/Baron6dB/070001.wav,stimuli/Arrow/040200.wav,stimuli/Hopper/030003.wav,NA,0,-21dB,Flat,B_2,1,0,1,0,0
12,stimuli/tones/FlatIEC-21dB.wav,1.25,35,noResp,NA,G_3,stimuli/Baron6dB/070302.wav,stimuli/Eagle/060202.wav,stimuli/Tiger/050102.wav,NA,0,-21dB,Flat,G_3,1,0,1,0,0
12,stimuli/tones/silence.wav,0.75,36,noResp,NA,W_3,stimuli/Baron6dB/070202.wav,stimuli/Laker/020100.wav,stimuli/Laker/020302.wav,NA,1,silence,silence,W_3,1,0,0,1,0
12,stimuli/tones/PercTri-33dB.wav,0.75,37,noResp,NA,G_2,stimuli/Baron6dB/070301.wav,stimuli/Eagle/060300.wav,stimuli/Eagle/060303.wav,NA,0,-33dB,PercTri,G_2,1,0,1,0,0
12,stimuli/tones/PercTri-30dB.wav,2,38,noResp,NA,B_1,stimuli/Baron6dB/070000.wav,stimuli/Arrow/040202.wav,stimuli/Hopper/030200.wav,NA,0,-30dB,PercTri,B_1,1,0,1,0,0
12,stimuli/tones/PercTri-21dB.wav,1.25,39,noResp,NA,R_1,stimuli/Baron6dB/070100.wav,stimuli/Tiger/050102.wav,stimuli/Eagle/060200.wav,NA,0,-21dB,PercTri,R_1,1,0,1,0,0
12,stimuli/tones/silence.wav,0.75,40,noResp,NA,W_1,stimuli/Baron6dB/070200.wav,stimuli/Tiger/050201.wav,stimuli/Hopper/030002.wav,NA,1,silence,silence,W_1,1,0,0,1,0
12,stimuli/tones/PercTri-21dB.wav,0.75,41,noResp,NA,B_4,stimuli/Baron6dB/070003.wav,stimuli/Tiger/050301.wav,stimuli/Charlie/000001.wav,NA,0,-21dB,PercTri,B_4,1,0,1,0,0
12,stimuli/tones/PercTri-18dB.wav,0.75,42,noResp,NA,R_4,stimuli/Baron6dB/070103.wav,stimuli/Hopper/030203.wav,stimuli/Arrow/040100.wav,NA,0,-18dB,PercTri,R_4,1,0,1,0,0
12,stimuli/tones/silence.wav,2,43,noResp,NA,R_3,stimuli/Baron6dB/070102.wav,stimuli/Charlie/000003.wav,stimuli/Eagle/060302.wav,NA,1,silence,silence,R_3,1,0,0,1,0
12,stimuli/tones/silence.wav,2,44,noResp,NA,W_2,stimuli/Baron6dB/070201.wav,stimuli/Ringo/010002.wav,stimuli/Charlie/000302.wav,NA,1,silence,silence,W_2,1,0,0,1,0
12,stimuli/tones/PercTri-18dB.wav,2,45,noResp,NA,R_2,stimuli/Baron6dB/070101.wav,stimuli/Hopper/030102.wav,stimuli/Arrow/040102.wav,NA,0,-18dB,PercTri,R_2,1,0,1,0,0
12,stimuli/tones/silence.wav,2,46,noResp,NA,G_4,stimuli/Baron6dB/070303.wav,stimuli/Tiger/050103.wav,stimuli/Charlie/000000.wav,NA,1,silence,silence,G_4,1,0,0,1,0
12,stimuli/tones/PercTri-33dB.wav,1.25,47,noResp,NA,W_4,stimuli/Baron6dB/070203.wav,stimuli/Laker/020303.wav,stimuli/Tiger/050203.wav,NA,0,-33dB,PercTri,W_4,1,0,1,0,0
12,stimuli/tones/silence.wav,1.25,48,noResp,NA,G_2,stimuli/Baron6dB/070301.wav,stimuli/Laker/020203.wav,stimuli/Ringo/010103.wav,NA,1,silence,silence,G_2,1,0,0,1,0
12,stimuli/tones/silence.wav,1.25,49,noResp,NA,R_1,stimuli/Baron6dB/070100.wav,stimuli/Arrow/040002.wav,stimuli/Ringo/010302.wav,NA,1,silence,silence,R_1,1,0,0,1,0
12,stimuli/tones/silence.wav,2,50,noResp,NA,W_4,stimuli/Baron6dB/070203.wav,stimuli/Tiger/050303.wav,stimuli/Hopper/030301.wav,NA,1,silence,silence,W_4,1,0,0,1,0
12,stimuli/tones/PercTri-27dB.wav,2,51,noResp,NA,R_3,stimuli/Baron6dB/070102.wav,stimuli/Ringo/010300.wav,stimuli/Charlie/000100.wav,NA,0,-27dB,PercTri,R_3,1,0,1,0,0
12,stimuli/tones/silence.wav,2,52,noResp,NA,W_3,stimuli/Baron6dB/070202.wav,stimuli/Charlie/000300.wav,stimuli/Charlie/000101.wav,NA,1,silence,silence,W_3,1,0,0,1,0
12,stimuli/tones/PercTri-27dB.wav,1.25,53,noResp,NA,B_3,stimuli/Baron6dB/070002.wav,stimuli/Eagle/060102.wav,stimuli/Eagle/060002.wav,NA,0,-27dB,PercTri,B_3,1,0,1,0,0
12,stimuli/tones/silence.wav,0.75,54,noResp,NA,W_1,stimuli/Baron6dB/070200.wav,stimuli/Laker/020302.wav,stimuli/Tiger/050000.wav,NA,1,silence,silence,W_1,1,0,0,1,0
12,stimuli/tones/FlatIEC-27dB.wav,0.75,55,noResp,NA,B_4,stimuli/Baron6dB/070003.wav,stimuli/Hopper/030201.wav,stimuli/Laker/020301.wav,NA,0,-27dB,Flat,B_4,1,0,1,0,0
12,stimuli/tones/silence.wav,2,56,noResp,NA,R_2,stimuli/Baron6dB/070101.wav,stimuli/Arrow/040100.wav,stimuli/Arrow/040001.wav,NA,1,silence,silence,R_2,1,0,0,1,0
12,stimuli/tones/silence.wav,1.25,57,noResp,NA,W_2,stimuli/Baron6dB/070201.wav,stimuli/Tiger/050001.wav,stimuli/Charlie/000200.wav,NA,1,silence,silence,W_2,1,0,0,1,0
12,stimuli/tones/silence.wav,1.25,58,noResp,NA,G_3,stimuli/Baron6dB/070302.wav,stimuli/Hopper/030302.wav,stimuli/Eagle/060300.wav,NA,1,silence,silence,G_3,1,0,0,1,0
12,stimuli/tones/silence.wav,0.75,59,noResp,NA,G_4,stimuli/Baron6dB/070303.wav,stimuli/Eagle/060203.wav,stimuli/Arrow/040000.wav,NA,1,silence,silence,G_4,1,0,0,1,0
12,stimuli/tones/FlatIEC-33dB.wav,2,60,noResp,NA,B_2,stimuli/Baron6dB/070001.wav,stimuli/Laker/020102.wav,stimuli/Eagle/060102.wav,NA,0,-33dB,Flat,B_2,1,0,1,0,0
12,stimuli/tones/silence.wav,0.75,61,noResp,NA,R_4,stimuli/Baron6dB/070103.wav,stimuli/Ringo/010103.wav,stimuli/Hopper/030102.wav,NA,1,silence,silence,R_4,1,0,0,1,0
12,stimuli/tones/PercTri-21dB.wav,2,62,noResp,NA,B_1,stimuli/Baron6dB/070000.wav,stimuli/Tiger/050302.wav,stimuli/Laker/020202.wav,NA,0,-21dB,PercTri,B_1,1,0,1,0,0
12,stimuli/tones/silence.wav,0.75,63,noResp,NA,G_1,stimuli/Baron6dB/070300.wav,stimuli/Ringo/010001.wav,stimuli/Tiger/050302.wav,NA,1,silence,silence,G_1,1,0,0,1,0
12,stimuli/tones/silence.wav,1.25,64,noResp,NA,G_4,stimuli/Baron6dB/070300.wav,stimuli/Eagle/060003.wav,stimuli/Eagle/060003.wav,NA,1,silence,silence,G_1,0,0,0,1,0
12,stimuli/tones/FlatIEC-27dB.wav,0.75,65,noResp,NA,W_2,stimuli/Baron6dB/070201.wav,stimuli/Charlie/000201.wav,stimuli/Laker/020200.wav,NA,0,-27dB,Flat,W_2,1,0,1,0,0
12,stimuli/tones/silence.wav,0.75,66,noResp,NA,B_1,stimuli/Baron6dB/070000.wav,stimuli/Charlie/000202.wav,stimuli/Arrow/040200.wav,NA,1,silence,silence,B_1,1,0,0,1,0
12,stimuli/tones/PercTri-27dB.wav,2,67,noResp,NA,R_1,stimuli/Baron6dB/070100.wav,stimuli/Arrow/040302.wav,stimuli/Eagle/060301.wav,NA,0,-27dB,PercTri,R_1,1,0,1,0,0
12,stimuli/tones/silence.wav,0.75,68,noResp,NA,W_4,stimuli/Baron6dB/070203.wav,stimuli/Arrow/040201.wav,stimuli/Ringo/010300.wav,NA,1,silence,silence,W_4,1,0,0,1,0
12,stimuli/tones/silence.wav,1.25,69,noResp,NA,G_4,stimuli/Baron6dB/070303.wav,stimuli/Arrow/040300.wav,stimuli/Ringo/010102.wav,NA,1,silence,silence,G_4,1,0,0,1,0
12,stimuli/tones/silence.wav,1.25,70,noResp,NA,R_4,stimuli/Baron6dB/070103.wav,stimuli/Hopper/030200.wav,stimuli/Hopper/030100.wav,NA,1,silence,silence,R_4,1,0,0,1,0
12,stimuli/tones/FlatIEC-21dB.wav,0.75,71,noResp,NA,G_2,stimuli/Baron6dB/070301.wav,stimuli/Charlie/000203.wav,stimuli/Arrow/040103.wav,NA,0,-21dB,Flat,G_2,1,0,1,0,0
12,stimuli/tones/FlatIEC-18dB.wav,0.75,72,noResp,NA,R_2,stimuli/Baron6dB/070101.wav,stimuli/Ringo/010100.wav,stimuli/Ringo/010202.wav,NA,0,-18dB,Flat,R_2,1,0,1,0,0
12,stimuli/tones/PercTri-33dB.wav,2,73,noResp,NA,B_3,stimuli/Baron6dB/070002.wav,stimuli/Charlie/000303.wav,stimuli/Laker/020001.wav,NA,0,-33dB,PercTri,B_3,1,0,1,0,0
12,stimuli/tones/PercTri-21dB.wav,0.75,74,noResp,NA,W_1,stimuli/Baron6dB/070200.wav,stimuli/Eagle/060103.wav,stimuli/Charlie/000301.wav,NA,0,-21dB,PercTri,W_1,1,0,1,0,0
12,stimuli/tones/silence.wav,1.25,75,noResp,NA,R_3,stimuli/Baron6dB/070102.wav,stimuli/Eagle/060303.wav,stimuli/Hopper/030103.wav,NA,1,silence,silence,R_3,1,0,0,1,0
12,stimuli/tones/FlatIEC-18dB.wav,0.75,76,noResp,NA,B_2,stimuli/Baron6dB/070001.wav,stimuli/Tiger/050100.wav,stimuli/Arrow/040203.wav,NA,0,-18dB,Flat,B_2,1,0,1,0,0
12,stimuli/tones/FlatIEC-33dB.wav,0.75,77,noResp,NA,W_3,stimuli/Baron6dB/070202.wav,stimuli/Tiger/050101.wav,stimuli/Eagle/060103.wav,NA,0,-33dB,Flat,W_3,1,0,1,0,0
12,stimuli/tones/silence.wav,2,78,noResp,NA,G_3,stimuli/Baron6dB/070302.wav,stimuli/Hopper/030301.wav,stimuli/Tiger/050301.wav,NA,1,silence,silence,G_3,1,0,0,1,0
12,stimuli/tones/PercTri-21dB.wav,2,79,noResp,NA,B_4,stimuli/Baron6dB/070003.wav,stimuli/Eagle/060002.wav,stimuli/Tiger/050202.wav,NA,0,-21dB,PercTri,B_4,1,0,1,0,0
12,stimuli/tones/silence.wav,0.75,80,noResp,NA,R_1,stimuli/Baron6dB/070100.wav,stimuli/Eagle/060301.wav,stimuli/Laker/020003.wav,NA,1,silence,silence,R_1,1,0,0,1,0
12,stimuli/tones/silence.wav,0.75,81,noResp,NA,G_2,stimuli/Baron6dB/070301.wav,stimuli/Arrow/040102.wav,stimuli/Arrow/040202.wav,NA,1,silence,silence,G_2,1,0,0,1,0
12,stimuli/tones/silence.wav,0.75,82,noResp,NA,G_4,stimuli/Baron6dB/070303.wav,stimuli/Hopper/030300.wav,stimuli/Laker/020203.wav,NA,1,silence,silence,G_4,1,0,0,1,0
12,stimuli/tones/silence.wav,1.25,83,noResp,NA,B_4,stimuli/Baron6dB/070003.wav,stimuli/Ringo/010203.wav,stimuli/Hopper/030202.wav,NA,1,silence,silence,B_4,1,0,0,1,0
12,stimuli/tones/FlatIEC-24dB.wav,2,84,noResp,NA,R_2,stimuli/Baron6dB/070101.wav,stimuli/Charlie/000102.wav,stimuli/Charlie/000303.wav,NA,0,-24dB,Flat,R_2,1,0,1,0,0
12,stimuli/tones/PercTri-30dB.wav,2,85,noResp,NA,G_3,stimuli/Baron6dB/070302.wav,stimuli/Eagle/060302.wav,stimuli/Tiger/050001.wav,NA,0,-30dB,PercTri,G_3,1,0,1,0,0
12,stimuli/tones/silence.wav,1.25,86,noResp,NA,R_3,stimuli/Baron6dB/070102.wav,stimuli/Laker/020001.wav,stimuli/Arrow/040303.wav,NA,1,silence,silence,R_3,1,0,0,1,0
12,stimuli/tones/silence.wav,1.25,87,noResp,NA,W_2,stimuli/Baron6dB/070201.wav,stimuli/Eagle/060000.wav,stimuli/Arrow/040003.wav,NA,1,silence,silence,W_2,1,0,0,1,0
12,stimuli/tones/PercTri-24dB.wav,0.75,88,noResp,NA,B_3,stimuli/Baron6dB/070002.wav,stimuli/Laker/020002.wav,stimuli/Charlie/000002.wav,NA,0,-24dB,PercTri,B_3,1,0,1,0,0
12,stimuli/tones/silence.wav,0.75,89,noResp,NA,B_2,stimuli/Baron6dB/070001.wav,stimuli/Tiger/050003.wav,stimuli/Ringo/010101.wav,NA,1,silence,silence,B_2,1,0,0,1,0
12,stimuli/tones/silence.wav,0.75,90,noResp,NA,B_1,stimuli/Baron6dB/070000.wav,stimuli/Arrow/040101.wav,stimuli/Arrow/040002.wav,NA,1,silence,silence,B_1,1,0,0,1,0
12,stimuli/tones/silence.wav,2,91,noResp,NA,W_3,stimuli/Baron6dB/070202.wav,stimuli/Laker/020201.wav,stimuli/Hopper/030303.wav,NA,1,silence,silence,W_3,1,0,0,1,0
12,stimuli/tones/PercTri-18dB.wav,1.25,92,noResp,NA,W_1,stimuli/Baron6dB/070200.wav,stimuli/Tiger/050203.wav,stimuli/Tiger/050300.wav,NA,0,-18dB,PercTri,W_1,1,0,1,0,0
12,stimuli/tones/silence.wav,0.75,93,noResp,NA,R_4,stimuli/Baron6dB/070103.wav,stimuli/Ringo/010102.wav,stimuli/Ringo/010301.wav,NA,1,silence,silence,R_4,1,0,0,1,0
12,stimuli/tones/silence.wav,1.25,94,noResp,NA,W_4,stimuli/Baron6dB/070203.wav,stimuli/Arrow/040003.wav,stimuli/Charlie/000102.wav,NA,1,silence,silence,W_4,1,0,0,1,0
12,stimuli/tones/PercTri-24dB.wav,2,95,noResp,NA,G_1,stimuli/Baron6dB/070300.wav,stimuli/Tiger/050300.wav,stimuli/Ringo/010001.wav,NA,0,-24dB,PercTri,G_1,1,0,1,0,0
12,stimuli/tones/PercTri-27dB.wav,1.25,96,noResp,NA,B_3,stimuli/Baron6dB/070002.wav,stimuli/Hopper/030000.wav,stimuli/Tiger/050200.wav,NA,0,-27dB,PercTri,B_3,1,0,1,0,0
12,stimuli/tones/PercTri-24dB.wav,0.75,97,noResp,NA,B_2,stimuli/Baron6dB/070001.wav,stimuli/Charlie/000200.wav,stimuli/Tiger/050201.wav,NA,0,-24dB,PercTri,B_2,1,0,1,0,0
12,stimuli/tones/PercTri-30dB.wav,0.75,98,noResp,NA,B_4,stimuli/Baron6dB/070003.wav,stimuli/Charlie/000302.wav,stimuli/Ringo/010100.wav,NA,0,-30dB,PercTri,B_4,1,0,1,0,0
12,stimuli/tones/silence.wav,0.75,99,noResp,NA,R_1,stimuli/Baron6dB/070100.wav,stimuli/Laker/020000.wav,stimuli/Eagle/060202.wav,NA,1,silence,silence,R_1,1,0,0,1,0
12,stimuli/tones/silence.wav,2,100,noResp,NA,G_2,stimuli/Baron6dB/070301.wav,stimuli/Arrow/040301.wav,stimuli/Ringo/010000.wav,NA,1,silence,silence,G_2,1,0,0,1,0
12,stimuli/tones/silence.wav,0.75,101,noResp,NA,W_4,stimuli/Baron6dB/070203.wav,stimuli/Arrow/040001.wav,stimuli/Eagle/060101.wav,NA,1,silence,silence,W_4,1,0,0,1,0
12,stimuli/tones/silence.wav,1.25,102,noResp,NA,R_4,stimuli/Baron6dB/070103.wav,stimuli/Eagle/060001.wav,stimuli/Hopper/030001.wav,NA,1,silence,silence,R_4,1,0,0,1,0
12,stimuli/tones/PercTri-21dB.wav,0.75,103,noResp,NA,R_2,stimuli/Baron6dB/070101.wav,stimuli/Ringo/010303.wav,stimuli/Arrow/040301.wav,NA,0,-21dB,PercTri,R_2,1,0,1,0,0
12,stimuli/tones/silence.wav,2,104,noResp,NA,G_3,stimuli/Baron6dB/070302.wav,stimuli/Hopper/030002.wav,stimuli/Charlie/000103.wav,NA,1,silence,silence,G_3,1,0,0,1,0
12,stimuli/tones/silence.wav,1.25,105,noResp,NA,W_1,stimuli/Baron6dB/070200.wav,stimuli/Laker/020301.wav,stimuli/Eagle/060203.wav,NA,1,silence,silence,W_1,1,0,0,1,0
12,stimuli/tones/silence.wav,2,106,noResp,NA,W_3,stimuli/Baron6dB/070202.wav,stimuli/Eagle/060100.wav,stimuli/Arrow/040201.wav,NA,1,silence,silence,W_3,1,0,0,1,0
12,stimuli/tones/silence.wav,1.25,107,noResp,NA,B_1,stimuli/Baron6dB/070000.wav,stimuli/Charlie/000301.wav,stimuli/Ringo/010303.wav,NA,1,silence,silence,B_1,1,0,0,1,0
12,stimuli/tones/FlatIEC-21dB.wav,1.25,108,noResp,NA,W_2,stimuli/Baron6dB/070201.wav,stimuli/Ringo/010202.wav,stimuli/Hopper/030201.wav,NA,0,-21dB,Flat,W_2,1,0,1,0,0
12,stimuli/tones/silence.wav,1.25,109,noResp,NA,G_4,stimuli/Baron6dB/070303.wav,stimuli/Arrow/040203.wav,stimuli/Ringo/010002.wav,NA,1,silence,silence,G_4,1,0,0,1,0
12,stimuli/tones/PercTri-18dB.wav,2,110,noResp,NA,G_1,stimuli/Baron6dB/070300.wav,stimuli/Laker/020003.wav,stimuli/Ringo/010003.wav,NA,0,-18dB,PercTri,G_1,1,0,1,0,0
12,stimuli/tones/FlatIEC-30dB.wav,1.25,111,noResp,NA,R_3,stimuli/Baron6dB/070102.wav,stimuli/Charlie/000101.wav,stimuli/Laker/020102.wav,NA,0,-30dB,Flat,R_3,1,0,1,0,0
12,stimuli/tones/FlatIEC-27dB.wav,2,112,noResp,NA,B_2,stimuli/Baron6dB/070001.wav,stimuli/Eagle/060102.wav,stimuli/Laker/020301.wav,NA,0,-27dB,Flat,B_2,1,0,1,0,0
12,stimuli/tones/silence.wav,1.25,113,noResp,NA,B_4,stimuli/Baron6dB/070003.wav,stimuli/Hopper/030103.wav,stimuli/Tiger/050001.wav,NA,1,silence,silence,B_4,1,0,0,1,0
12,stimuli/tones/silence.wav,2,114,noResp,NA,W_2,stimuli/Baron6dB/070201.wav,stimuli/Arrow/040102.wav,stimuli/Laker/020302.wav,NA,1,silence,silence,W_2,1,0,0,1,0
12,stimuli/tones/silence.wav,2,115,noResp,NA,G_2,stimuli/Baron6dB/070301.wav,stimuli/Eagle/060001.wav,stimuli/Arrow/040302.wav,NA,1,silence,silence,G_2,1,0,0,1,0
12,stimuli/tones/silence.wav,0.75,116,noResp,NA,G_1,stimuli/Baron6dB/070300.wav,stimuli/Tiger/050200.wav,stimuli/Eagle/060300.wav,NA,1,silence,silence,G_1,1,0,0,1,0
12,stimuli/tones/PercTri-18dB.wav,1.25,117,noResp,NA,B_3,stimuli/Baron6dB/070002.wav,stimuli/Ringo/010001.wav,stimuli/Eagle/060102.wav,NA,0,-18dB,PercTri,B_3,1,0,1,0,0
12,stimuli/tones/silence.wav,2,118,noResp,NA,W_1,stimuli/Baron6dB/070200.wav,stimuli/Tiger/050003.wav,stimuli/Eagle/060002.wav,NA,1,silence,silence,W_1,1,0,0,1,0
12,stimuli/tones/FlatIEC-30dB.wav,1.25,119,noResp,NA,G_3,stimuli/Baron6dB/070302.wav,stimuli/Hopper/030201.wav,stimuli/Charlie/000200.wav,NA,0,-30dB,Flat,G_3,1,0,1,0,0
12,stimuli/tones/FlatIEC-30dB.wav,2,120,noResp,NA,G_4,stimuli/Baron6dB/070303.wav,stimuli/Eagle/060101.wav,stimuli/Arrow/040203.wav,NA,0,-30dB,Flat,G_4,1,0,1,0,0
12,stimuli/tones/silence.wav,0.75,121,noResp,NA,W_3,stimuli/Baron6dB/070202.wav,stimuli/Arrow/040200.wav,stimuli/Tiger/050000.wav,NA,1,silence,silence,W_3,1,0,0,1,0
12,stimuli/tones/silence.wav,1.25,122,noResp,NA,W_1,stimuli/Baron6dB/070100.wav,stimuli/Tiger/050302.wav,stimuli/Hopper/030302.wav,NA,1,silence,silence,R_1,0,0,0,1,0
12,stimuli/tones/silence.wav,2,123,noResp,NA,R_3,stimuli/Baron6dB/070102.wav,stimuli/Eagle/060003.wav,stimuli/Hopper/030303.wav,NA,1,silence,silence,R_3,1,0,0,1,0
12,stimuli/tones/FlatIEC-18dB.wav,0.75,124,noResp,NA,B_1,stimuli/Baron6dB/070000.wav,stimuli/Charlie/000203.wav,stimuli/Arrow/040103.wav,NA,0,-18dB,Flat,B_1,1,0,1,0,0
12,stimuli/tones/FlatIEC-18dB.wav,1.25,125,noResp,NA,R_4,stimuli/Baron6dB/070103.wav,stimuli/Laker/020201.wav,stimuli/Laker/020003.wav,NA,0,-18dB,Flat,R_4,1,0,1,0,0
12,stimuli/tones/FlatIEC-24dB.wav,0.75,126,noResp,NA,R_2,stimuli/Baron6dB/070101.wav,stimuli/Laker/020000.wav,stimuli/Laker/020201.wav,NA,0,-24dB,Flat,R_2,1,0,1,0,0
12,stimuli/tones/silence.wav,1.25,127,noResp,NA,W_4,stimuli/Baron6dB/070203.wav,stimuli/Hopper/030300.wav,stimuli/Charlie/000303.wav,NA,1,silence,silence,W_4,1,0,0,1,0
12,stimuli/tones/FlatIEC-27dB.wav,1.25,128,noResp,NA,B_1,stimuli/Baron6dB/070000.wav,stimuli/Charlie/000101.wav,stimuli/Ringo/010203.wav,NA,0,-27dB,Flat,B_1,1,0,1,0,0
12,stimuli/tones/silence.wav,1.25,129,noResp,NA,G_2,stimuli/Baron6dB/070301.wav,stimuli/Hopper/030200.wav,stimuli/Charlie/000000.wav,NA,1,silence,silence,G_2,1,0,0,1,0
12,stimuli/tones/PercTri-27dB.wav,1.25,130,noResp,NA,R_2,stimuli/Baron6dB/070101.wav,stimuli/Ringo/010202.wav,stimuli/Eagle/060003.wav,NA,0,-27dB,PercTri,R_2,1,0,1,0,0
12,stimuli/tones/PercTri-21dB.wav,1.25,131,noResp,NA,G_4,stimuli/Baron6dB/070303.wav,stimuli/Laker/020102.wav,stimuli/Laker/020100.wav,NA,0,-21dB,PercTri,G_4,1,0,1,0,0
12,stimuli/tones/PercTri-33dB.wav,1.25,132,noResp,NA,W_3,stimuli/Baron6dB/070202.wav,stimuli/Charlie/000103.wav,stimuli/Eagle/060303.wav,NA,0,-33dB,PercTri,W_3,1,0,1,0,0
12,stimuli/tones/FlatIEC-30dB.wav,0.75,133,noResp,NA,G_3,stimuli/Baron6dB/070302.wav,stimuli/Arrow/040101.wav,stimuli/Ringo/010200.wav,NA,0,-30dB,Flat,G_3,1,0,1,0,0
12,stimuli/tones/silence.wav,1.25,134,noResp,NA,W_1,stimuli/Baron6dB/070200.wav,stimuli/Ringo/010003.wav,stimuli/Arrow/040200.wav,NA,1,silence,silence,W_1,1,0,0,1,0
12,stimuli/tones/silence.wav,1.25,135,noResp,NA,W_2,stimuli/Baron6dB/070201.wav,stimuli/Arrow/040201.wav,stimuli/Ringo/010002.wav,NA,1,silence,silence,W_2,1,0,0,1,0
12,stimuli/tones/silence.wav,0.75,136,noResp,NA,R_4,stimuli/Baron6dB/070103.wav,stimuli/Ringo/010000.wav,stimuli/Ringo/010103.wav,NA,1,silence,silence,R_4,1,0,0,1,0
12,stimuli/tones/FlatIEC-18dB.wav,2,137,noResp,NA,G_1,stimuli/Baron6dB/070300.wav,stimuli/Eagle/060201.wav,stimuli/Tiger/050101.wav,NA,0,-18dB,Flat,G_1,1,0,1,0,0
12,stimuli/tones/FlatIEC-21dB.wav,0.75,138,noResp,NA,B_3,stimuli/Baron6dB/070002.wav,stimuli/Ringo/010102.wav,stimuli/Arrow/040100.wav,NA,0,-21dB,Flat,B_3,1,0,1,0,0
12,stimuli/tones/silence.wav,0.75,139,noResp,NA,W_1,stimuli/Baron6dB/070100.wav,stimuli/Tiger/050303.wav,stimuli/Laker/020202.wav,NA,1,silence,silence,R_1,0,0,0,1,0
12,stimuli/tones/silence.wav,2,140,noResp,NA,R_2,stimuli/Baron6dB/070001.wav,stimuli/Arrow/040300.wav,stimuli/Charlie/000101.wav,NA,1,silence,silence,B_2,0,0,0,1,0
12,stimuli/tones/FlatIEC-33dB.wav,1.25,141,noResp,NA,W_3,stimuli/Baron6dB/070102.wav,stimuli/Eagle/060100.wav,stimuli/Charlie/000202.wav,NA,0,-33dB,Flat,R_3,0,0,1,0,0
12,stimuli/tones/PercTri-18dB.wav,0.75,142,noResp,NA,B_4,stimuli/Baron6dB/070003.wav,stimuli/Hopper/030302.wav,stimuli/Ringo/010302.wav,NA,0,-18dB,PercTri,B_4,1,0,1,0,0
12,stimuli/tones/PercTri-21dB.wav,2,143,noResp,NA,W_4,stimuli/Baron6dB/070203.wav,stimuli/Eagle/060203.wav,stimuli/Hopper/030001.wav,NA,0,-21dB,PercTri,W_4,1,0,1,0,0
12,stimuli/tones/FlatIEC-27dB.wav,0.75,144,noResp,NA,B_4,stimuli/Baron6dB/070003.wav,stimuli/Ringo/010301.wav,stimuli/Ringo/010003.wav,NA,0,-27dB,Flat,B_4,1,0,1,0,0
12,stimuli/tones/silence.wav,2,145,noResp,NA,W_2,stimuli/Baron6dB/070201.wav,stimuli/Charlie/000200.wav,stimuli/Tiger/050202.wav,NA,1,silence,silence,W_2,1,0,0,1,0
12,stimuli/tones/FlatIEC-18dB.wav,1.25,146,noResp,NA,G_3,stimuli/Baron6dB/070302.wav,stimuli/Tiger/050000.wav,stimuli/Hopper/030000.wav,NA,0,-18dB,Flat,G_3,1,0,1,0,0
12,stimuli/tones/FlatIEC-33dB.wav,1.25,147,noResp,NA,B_3,stimuli/Baron6dB/070002.wav,stimuli/Laker/020101.wav,stimuli/Ringo/010102.wav,NA,0,-33dB,Flat,B_3,1,0,1,0,0
12,stimuli/tones/FlatIEC-30dB.wav,2,148,noResp,NA,R_3,stimuli/Baron6dB/070102.wav,stimuli/Eagle/060302.wav,stimuli/Charlie/000103.wav,NA,0,-30dB,Flat,R_3,1,0,1,0,0
12,stimuli/tones/silence.wav,0.75,149,noResp,NA,W_4,stimuli/Baron6dB/070203.wav,stimuli/Tiger/050201.wav,stimuli/Tiger/050300.wav,NA,1,silence,silence,W_4,1,0,0,1,0
12,stimuli/tones/FlatIEC-30dB.wav,0.75,150,noResp,NA,B_1,stimuli/Baron6dB/070000.wav,stimuli/Ringo/010200.wav,stimuli/Charlie/000302.wav,NA,0,-30dB,Flat,B_1,1,0,1,0,0
12,stimuli/tones/FlatIEC-33dB.wav,2,151,noResp,NA,W_3,stimuli/Baron6dB/070202.wav,stimuli/Ringo/010201.wav,stimuli/Eagle/060301.wav,NA,0,-33dB,Flat,W_3,1,0,1,0,0
12,stimuli/tones/silence.wav,1.25,152,noResp,NA,W_1,stimuli/Baron6dB/070300.wav,stimuli/Eagle/060300.wav,stimuli/Tiger/050301.wav,NA,1,silence,silence,G_1,0,0,0,1,0
12,stimuli/tones/silence.wav,1.25,153,noResp,NA,W_2,stimuli/Baron6dB/070100.wav,stimuli/Ringo/010100.wav,stimuli/Eagle/060201.wav,NA,1,silence,silence,R_1,0,0,0,1,0
12,stimuli/tones/silence.wav,1.25,154,noResp,NA,R_2,stimuli/Baron6dB/070101.wav,stimuli/Ringo/010002.wav,stimuli/Hopper/030203.wav,NA,1,silence,silence,R_2,1,0,0,1,0
12,stimuli/tones/PercTri-18dB.wav,0.75,155,noResp,NA,G_4,stimuli/Baron6dB/070303.wav,stimuli/Arrow/040100.wav,stimuli/Tiger/050003.wav,NA,0,-18dB,PercTri,G_4,1,0,1,0,0
12,stimuli/tones/silence.wav,2,156,noResp,NA,G_2,stimuli/Baron6dB/070301.wav,stimuli/Hopper/030002.wav,stimuli/Arrow/040202.wav,NA,1,silence,silence,G_2,1,0,0,1,0
12,stimuli/tones/silence.wav,1.25,157,noResp,NA,R_4,stimuli/Baron6dB/070103.wav,stimuli/Hopper/030101.wav,stimuli/Hopper/030200.wav,NA,1,silence,silence,R_4,1,0,0,1,0
12,stimuli/tones/PercTri-30dB.wav,1.25,158,noResp,NA,W_1,stimuli/Baron6dB/070200.wav,stimuli/Hopper/030003.wav,stimuli/Eagle/060100.wav,NA,0,-30dB,PercTri,W_1,1,0,1,0,0
12,stimuli/tones/silence.wav,0.75,159,noResp,NA,B_2,stimuli/Baron6dB/070001.wav,stimuli/Eagle/060303.wav,stimuli/Laker/020002.wav,NA,1,silence,silence,B_2,1,0,0,1,0
12,stimuli/tones/silence.wav,1.25,160,noResp,NA,W_2,stimuli/Baron6dB/070201.wav,stimuli/Eagle/060301.wav,stimuli/Hopper/030100.wav,NA,1,silence,silence,W_2,1,0,0,1,0
12,stimuli/tones/silence.wav,2,161,noResp,NA,B_1,stimuli/Baron6dB/070000.wav,stimuli/Arrow/040103.wav,stimuli/Ringo/010001.wav,NA,1,silence,silence,B_1,1,0,0,1,0
12,stimuli/tones/silence.wav,0.75,162,noResp,NA,R_3,stimuli/Baron6dB/070102.wav,stimuli/Laker/020301.wav,stimuli/Ringo/010101.wav,NA,1,silence,silence,R_3,1,0,0,1,0
12,stimuli/tones/silence.wav,0.75,163,noResp,NA,R_1,stimuli/Baron6dB/070300.wav,stimuli/Arrow/040203.wav,stimuli/Charlie/000100.wav,NA,1,silence,silence,G_1,0,0,0,1,0
12,stimuli/tones/FlatIEC-30dB.wav,1.25,164,noResp,NA,G_2,stimuli/Baron6dB/070301.wav,stimuli/Arrow/040303.wav,stimuli/Tiger/050100.wav,NA,0,-30dB,Flat,G_2,1,0,1,0,0
12,stimuli/tones/FlatIEC-21dB.wav,2,165,noResp,NA,B_2,stimuli/Baron6dB/070001.wav,stimuli/Laker/020302.wav,stimuli/Arrow/040002.wav,NA,0,-21dB,Flat,B_2,1,0,1,0,0
12,stimuli/tones/silence.wav,2,166,noResp,NA,W_4,stimuli/Baron6dB/070203.wav,stimuli/Charlie/000003.wav,stimuli/Eagle/060103.wav,NA,1,silence,silence,W_4,1,0,0,1,0
12,stimuli/tones/silence.wav,0.75,167,noResp,NA,W_1,stimuli/Baron6dB/070003.wav,stimuli/Ringo/010101.wav,stimuli/Ringo/010000.wav,NA,1,silence,silence,B_4,0,0,0,1,0
12,stimuli/tones/FlatIEC-27dB.wav,2,168,noResp,NA,B_3,stimuli/Baron6dB/070002.wav,stimuli/Hopper/030301.wav,stimuli/Charlie/000203.wav,NA,0,-27dB,Flat,B_3,1,0,1,0,0
12,stimuli/tones/PercTri-27dB.wav,2,169,noResp,NA,R_2,stimuli/Baron6dB/070101.wav,stimuli/Laker/020303.wav,stimuli/Charlie/000102.wav,NA,0,-27dB,PercTri,R_2,1,0,1,0,0
